time,ACCx,ACCy,ACCz,ACCnorm,,
0.174586,0.2562,-0.077348,-0.119072,0.292915166,1,0.336737389
0.18464,0.214232,-0.059048,-0.142984,0.264246931,2,
0.193399,0.309148,-0.054168,-0.132492,0.340676956,3,
0.20205,0.148108,-0.046604,-0.133224,0.204588726,4,
0.211585,0.31476,-0.139568,-0.137128,0.370617286,5,
0.225005,0.323056,0.044408,-0.19398,0.379427846,6,
0.234601,0.137128,-0.0183,-0.11102,0.177382126,7,
0.244213,0.398452,0.014884,-0.152744,0.426985081,8,
0.227319,0.202276,-0.014884,-0.157624,0.256870471,9,
0.236254,0.179096,-0.022448,-0.156648,0.238993485,10,
0.243097,0.173972,-0.01342,-0.15738,0.234978334,11,
0.250765,0.170312,0.001464,-0.159576,0.233394131,12,
0.259195,0.169092,0.010736,-0.155672,0.230089412,13,
0.266328,0.16348,0.01952,-0.145912,0.219993301,14,
0.273107,0.179096,0.018788,-0.133224,0.224002233,15,
0.280657,0.191052,0.019276,-0.122976,0.228025278,16,
0.287509,0.211548,0.023912,-0.120048,0.244409211,17,
0.294808,0.217892,0.017568,-0.116388,0.247652427,18,
0.301783,0.224724,0.00976,-0.114436,0.252372209,19,
0.308027,0.226432,0.004148,-0.116144,0.254515393,20,
0.314154,0.22204,0.003172,-0.116632,0.250828321,21,
0.320483,0.219356,0.00488,-0.118096,0.249173703,22,
0.326884,0.213012,0.003416,-0.123464,0.246229853,23,
0.337908,0.209596,0.009028,-0.129808,0.246702462,24,
0.3443,0.210816,0.006588,-0.137372,0.251709861,25,
0.352168,0.225212,0.017812,-0.1403,0.265935711,26,
0.359271,0.234728,0.040504,-0.137128,0.274848861,27,
0.365648,0.22814,0.036356,-0.139812,0.270031505,28,
0.373444,0.23912,0.029036,-0.142008,0.2796207,29,
0.380711,0.249856,0.027084,-0.145912,0.290606049,30,
0.387167,0.249124,0.01952,-0.132004,0.282610781,31,
0.394245,0.279868,-0.000732,-0.142496,0.314056911,32,
0.401374,0.291336,-0.01098,-0.148108,0.32700643,33,
0.408788,0.37454,-0.020496,-0.14152,0.400909227,34,
0.415169,0.337208,0.000244,-0.14152,0.365700978,35,
0.422305,0.37088,0.00366,-0.158844,0.403480838,36,
0.429619,0.384544,0.002196,-0.183244,0.42597802,37,
0.436684,0.313784,0.000732,-0.2013,0.372803735,38,
0.443818,0.366244,-0.00122,-0.214476,0.424424446,39,
0.450874,0.373564,-0.005124,-0.219112,0.43311244,40,
0.457927,0.389912,-0.008784,-0.216184,0.445919329,41,
0.464554,0.400404,-0.02318,-0.209352,0.452425613,42,
0.471674,0.415044,-0.036112,-0.128588,0.436005129,43,
0.478765,0.45994,-0.061732,-0.140056,0.48473841,44,
0.486294,0.471408,-0.089304,-0.088084,0.487810924,45,
0.492989,0.478484,-0.153232,-0.041724,0.504150648,46,
0.499451,0.44774,-0.147864,-0.018788,0.471898145,47,
0.507048,0.415288,-0.13664,-0.018056,0.437562146,48,
0.513925,0.35502,-0.145668,-0.058804,0.388221943,49,
0.520401,0.339404,-0.127368,-0.096136,0.375046415,50,
0.527877,0.339892,-0.115168,-0.126636,0.380561318,51,
0.53428,0.370392,-0.043676,-0.135176,0.396699354,52,
0.541488,0.393084,-0.037576,-0.248636,0.466633526,53,
0.548562,0.394548,0.007564,-0.236192,0.459904337,54,
0.555339,0.405528,0.030988,-0.278648,0.493009049,55,
0.561856,0.408212,0.016592,-0.322568,0.520540533,56,
0.570829,0.402356,0.027816,-0.346236,0.531548162,57,
0.577213,0.36844,0.036844,-0.35014,0.509611159,58,
0.584302,0.345504,0.016836,-0.32696,0.475982465,59,
0.591151,0.309636,0.037332,-0.306708,0.437421911,60,
0.597554,0.260104,0.018056,-0.288164,0.388611118,61,
0.60447,0.216672,-0.001464,-0.268888,0.345325434,62,
0.61098,0.17934,-0.020984,-0.23668,0.2976921,63,
0.61736,0.141764,-0.04148,-0.159332,0.217265525,64,
0.623141,0.122976,-0.037576,-0.1708,0.213793574,65,
0.635784,0.096868,-0.071492,-0.066124,0.13735683,66,
0.642279,0.08052,-0.08662,-0.085888,0.146161703,67,
0.649021,0.059292,-0.098576,-0.077592,0.138756216,68,
0.655399,0.054656,-0.109068,-0.077104,0.144319554,69,
0.662322,0.078812,-0.107604,-0.080032,0.155547656,70,
0.668665,0.070272,-0.16592,-0.091744,0.202199312,71,
0.676723,0.068808,-0.169092,-0.182756,0.258314539,72,
0.684396,0.163236,-0.20008,-0.162992,0.305359444,73,
0.690844,0.17202,-0.183244,-0.190808,0.315558135,74,
0.698201,0.18788,-0.11468,-0.20984,0.304110543,75,
0.704591,0.188612,-0.096624,-0.238876,0.319331219,76,
0.711593,0.26474,-0.0854,-0.255224,0.377517838,77,
0.718961,0.323788,-0.081984,-0.251808,0.418290944,78,
0.72534,0.364536,-0.09028,-0.239364,0.44534492,79,
0.732261,0.368196,-0.09882,-0.24888,0.455274578,80,
0.73865,0.389912,-0.122,-0.258884,0.483669612,81,
0.745745,0.4148,-0.021472,-0.271084,0.495990546,82,
0.75223,0.451888,0.012444,-0.27572,0.529508391,83,
0.758965,0.47458,0.036112,-0.256444,0.540642005,84,
0.764739,0.468236,0.047824,-0.22814,0.523048704,85,
0.77262,0.434808,0.001952,-0.2074,0.481743259,86,
0.779336,0.383812,0.017812,-0.1891,0.428237935,87,
0.786388,0.34648,-0.010492,-0.18422,0.392549972,88,
0.793278,0.310856,-0.018056,-0.187392,0.363418813,89,
0.799747,0.27938,-0.030256,-0.19032,0.339396983,90,
0.806833,0.239364,-0.041724,-0.190564,0.308789013,91,
0.813629,0.217892,-0.05734,-0.187148,0.292897889,92,
0.82208,0.19398,-0.06344,-0.171044,0.266287296,93,
0.828436,0.184708,-0.081252,-0.150304,0.251615232,94,
0.835831,0.18178,-0.108824,-0.135908,0.251709388,95,
0.842538,0.14762,-0.122,-0.10858,0.220148315,96,
0.849685,0.15006,-0.130052,-0.085644,0.216255453,97,
0.856682,0.149572,-0.110776,-0.075152,0.200726003,98,
0.86394,0.148108,-0.05368,-0.111264,0.192865756,99,
0.870412,0.149572,-0.141276,-0.059536,0.214185029,100,
0.877464,0.178608,-0.122488,-0.032208,0.218955436,101,
0.884578,0.223992,-0.09394,-0.030256,0.244770434,102,
0.892143,0.223748,-0.073932,-0.034892,0.238215364,103,
0.898497,0.245464,-0.062952,-0.036356,0.256002516,104,
0.905821,0.257908,-0.071004,-0.055632,0.273227056,105,
0.912235,0.290604,-0.101992,-0.077592,0.317606,106,
0.920085,0.33428,-0.091988,-0.093696,0.359143218,107,
0.926772,0.337452,-0.075884,-0.100528,0.360191772,108,
0.933532,0.33062,-0.091256,-0.108336,0.359685878,109,
0.940015,0.333304,-0.089792,-0.1098,0.362229485,110,
0.947437,0.334036,-0.084424,-0.105896,0.360446146,111,
0.954554,0.313052,-0.088572,-0.10858,0.342981297,112,
0.9614,0.301828,-0.081496,-0.103212,0.329233134,113,
0.968703,0.299876,-0.081984,-0.105896,0.328421915,114,
0.976403,0.301096,-0.080764,-0.106872,0.329550071,115,
0.983131,0.298168,-0.08296,-0.113948,0.329803979,116,
0.990206,0.299632,-0.082228,-0.116876,0.331965026,117,
0.997027,0.295972,-0.07564,-0.187392,0.358380519,118,
0.004268,0.301828,-0.07198,-0.134444,0.338166307,119,
0.010718,0.307684,-0.07686,-0.142984,0.347881198,120,
0.018151,0.320616,-0.078812,-0.153476,0.364089046,121,
0.024522,0.32452,-0.068564,-0.167628,0.371636111,122,
0.032264,0.338672,-0.06466,-0.188124,0.392772553,123,
0.03945,0.345016,-0.053192,-0.206668,0.405681022,124,
0.047128,0.348432,-0.048068,-0.22448,0.417260904,125,
0.053625,0.372832,-0.024888,-0.238632,0.443360287,126,
0.060502,0.376736,-0.040016,-0.244,0.450629886,127,
0.067665,0.397476,-0.018544,-0.239608,0.464481479,128,
0.074985,0.4087,-0.009516,-0.233264,0.470678593,129,
0.082364,0.436272,-0.024644,-0.2135,0.486336133,130,
0.088942,0.440176,0.000732,-0.203496,0.484939242,131,
0.095978,0.4453,-0.00488,-0.20618,0.490740356,132,
0.102721,0.455548,-0.039528,-0.223992,0.509174684,133,
0.110255,0.460916,-0.066612,-0.237168,0.522617812,134,
0.116694,0.44652,-0.097356,-0.239364,0.515900597,135,
0.123475,0.411384,-0.119316,-0.227408,0.48496134,136,
0.129939,0.376492,-0.12444,-0.196176,0.442398647,137,
0.136733,0.33672,-0.13054,-0.16836,0.39845469,138,
0.14378,0.25132,-0.143228,-0.155916,0.328611931,139,
0.150253,0.266448,-0.143472,-0.1403,0.333560851,140,
0.156164,0.238632,-0.13542,-0.13664,0.306519653,141,
0.161913,0.220576,-0.127612,-0.134444,0.288121126,142,
0.167756,0.199836,-0.120292,-0.134444,0.269220693,143,
0.173578,0.170312,-0.100284,-0.1342,0.238898928,144,
0.179425,0.155428,-0.08906,-0.127856,0.220083401,145,
0.185153,0.121512,-0.077836,-0.128588,0.193283426,146,
0.191247,0.110776,-0.06222,-0.126636,0.179385972,147,
0.198234,0.081008,-0.050752,-0.122,0.154990521,148,
0.206215,0.055388,-0.014396,-0.129564,0.141640056,149,
0.215321,0.032208,-0.009516,-0.129076,0.133373623,150,
0.221223,0.030012,-0.002928,-0.124684,0.128278576,151,
0.228806,0.030012,-0.009516,-0.124684,0.128597723,152,
0.235389,0.042212,0.004148,-0.113948,0.121586206,153,
0.241673,0.071736,-0.00122,-0.106872,0.128721274,154,
0.247493,0.093696,-0.016348,-0.108824,0.144529791,155,
0.25325,0.138348,-0.000244,-0.122488,0.184779703,156,
0.259067,0.183244,-0.02074,-0.135664,0.228939363,157,
0.26489,0.220332,-0.074176,-0.147132,0.275129233,158,
0.270728,0.282796,-0.125904,-0.161528,0.349165705,159,
0.276473,0.32086,-0.14152,-0.188612,0.398187816,160,
0.282293,0.32818,-0.149572,-0.204228,0.414467093,161,
0.288169,0.345504,-0.177632,-0.229604,0.451269474,162,
0.293982,0.380152,-0.207888,-0.260104,0.505358343,163,
0.299884,0.422852,-0.226432,-0.27694,0.553869144,164,
0.305694,0.451888,-0.216672,-0.288408,0.578211635,165,
0.311545,0.496296,-0.199348,-0.293044,0.609855828,166,
0.317329,0.517768,-0.172508,-0.291336,0.618643174,167,
0.323169,0.514352,-0.126636,-0.278648,0.598531005,168,
0.328987,0.476044,-0.110288,-0.242536,0.545531891,169,
0.334793,0.471408,-0.080276,-0.211304,0.52279931,170,
0.340719,0.462136,-0.035624,-0.193248,0.502178794,171,
0.34656,0.405772,-0.051728,-0.18666,0.449631691,172,
0.352378,0.359168,-0.038552,-0.192028,0.409099819,173,
0.358197,0.2623,-0.046848,-0.197396,0.33160399,174,
0.363936,0.2806,-0.043432,-0.210328,0.353356146,175,
0.370881,0.258396,-0.039772,-0.2135,0.337538968,176,
0.377139,0.226432,-0.042944,-0.21472,0.314992565,177,
0.382884,0.200324,-0.027328,-0.216916,0.296528372,178,
0.388765,0.18788,-0.033916,-0.217404,0.289333179,179,
0.394585,0.154696,-0.062464,-0.214232,0.271528918,180,
0.400409,0.15982,-0.041968,-0.20252,0.261377305,181,
0.406422,0.169092,-0.082228,-0.190564,0.267709145,182,
0.413512,0.12078,-0.065148,-0.194956,0.238411225,183,
0.419711,0.108824,-0.069296,-0.12566,0.180097291,184,
0.425454,0.11956,-0.081008,-0.168848,0.222185816,185,
0.431443,0.128832,-0.011956,-0.161284,0.20676837,186,
0.437246,0.12932,-0.041968,-0.158356,0.208714154,187,
0.44355,0.136396,-0.03416,-0.159332,0.212502849,188,
0.450808,0.14518,-0.028304,-0.167628,0.22355647,189,
0.458432,0.174704,-0.027328,-0.163236,0.240653899,190,
0.465548,0.188856,-0.01952,-0.167384,0.253110692,191,
0.472438,0.199104,-0.00976,-0.176168,0.266031623,192,
0.478784,0.207888,-0.007076,-0.183732,0.27753367,193,
0.486231,0.22814,0.061488,-0.19398,0.305707171,194,
0.49262,0.23424,0.005368,-0.201788,0.309217706,195,
0.499459,0.241316,0.010492,-0.212036,0.321407466,196,
0.506534,0.242292,0.009272,-0.220088,0.327460091,197,
0.513322,0.30744,0.007076,-0.223748,0.380305917,198,
0.51948,0.254736,0.007564,-0.222284,0.338168332,199,
0.525241,0.260836,0.003904,-0.217648,0.339737122,200,
0.531229,0.270596,-0.008296,-0.20862,0.341779641,201,
0.537036,0.272792,-0.027328,-0.20496,0.342302347,202,
0.542777,0.266692,-0.037088,-0.19642,0.333288102,203,
0.54858,0.260348,-0.05978,-0.186904,0.326018151,204,
0.554424,0.259616,-0.08052,-0.181292,0.326727298,205,
0.563335,0.264252,-0.095648,-0.177876,0.332592139,206,
0.570117,0.26718,-0.115412,-0.172752,0.338449901,207,
0.577164,0.270596,-0.118096,-0.183244,0.347487013,208,
0.58478,0.285724,-0.112972,-0.203496,0.368526117,209,
0.591264,0.284504,-0.077592,-0.221064,0.368554388,210,
0.598118,0.27572,-0.046604,-0.253028,0.377116189,211,
0.6045,0.267912,-0.01586,-0.282552,0.389697334,212,
0.611336,0.25986,0.003904,-0.373564,0.455074195,213,
0.617714,0.1952,0.005856,-0.338428,0.390731166,214,
0.62388,0.259372,0.011468,-0.360876,0.444563648,215,
0.629732,0.268156,0.018788,-0.368684,0.456276803,216,
0.635471,0.268644,0.012932,-0.370148,0.457543853,217,
0.641453,0.28304,0.048312,-0.360632,0.460978449,218,
0.647245,0.28548,0.032696,-0.337696,0.443403256,219,
0.654374,0.286456,0.030988,-0.307196,0.421172979,220,
0.660185,0.274744,0.09882,-0.280112,0.404613878,221,
0.665919,0.299388,0.05124,-0.193248,0.360004863,222,
0.673103,0.288652,0.03904,-0.235216,0.37439373,223,
0.680262,0.270108,0.00244,-0.227652,0.353255882,224,
0.688495,0.2562,-0.016592,-0.213744,0.334066209,225,
0.695476,0.243756,-0.036844,-0.204472,0.320286226,226,
0.702684,0.23302,-0.057584,-0.193736,0.308460492,227,
0.710481,0.213256,-0.079544,-0.187392,0.294823899,228,
0.716868,0.190808,-0.09394,-0.192516,0.286870749,229,
0.723642,0.176168,-0.109068,-0.192272,0.282665022,230,
0.730088,0.170312,-0.132492,-0.186172,0.284991791,231,
0.736822,0.170556,-0.159576,-0.18056,0.295221548,232,
0.743201,0.18666,-0.163724,-0.175192,0.303874548,233,
0.750082,0.20374,-0.18422,-0.168116,0.322040348,234,
0.755921,0.211792,-0.19032,-0.164944,0.32906546,235,
0.761755,0.221796,-0.189832,-0.159088,0.332473526,236,
0.7695,0.208376,-0.178608,-0.14884,0.312209418,237,
0.775678,0.207644,-0.1647,-0.140056,0.299762913,238,
0.78158,0.199592,-0.163968,-0.12566,0.2872506,239,
0.788322,0.200812,-0.159332,-0.128588,0.286787411,240,
0.795398,0.203008,-0.132736,-0.128588,0.274528628,241,
0.803894,0.20252,-0.111508,-0.127612,0.264070458,242,
0.810958,0.196176,-0.1037,-0.136396,0.260466086,243,
0.817355,0.188124,-0.106384,-0.145424,0.260492485,244,
0.824638,0.193248,-0.108336,-0.156648,0.271330194,245,
0.831114,0.196664,-0.11224,-0.17324,0.285108127,246,
0.838017,0.206668,-0.114924,-0.249124,0.343485015,247,
0.845965,0.218868,-0.114924,-0.206668,0.322214819,248,
0.853147,0.231556,-0.123952,-0.22692,0.347095039,249,
0.86027,0.260104,-0.12078,-0.25376,0.382930851,250,
0.867465,0.282552,-0.186904,-0.26962,0.432970764,251,
0.874507,0.296948,-0.13542,-0.268644,0.422713011,252,
0.881689,0.32818,-0.126636,-0.268888,0.442763532,253,
0.888714,0.374052,-0.125416,-0.252784,0.468555037,254,
0.895513,0.403332,-0.141276,-0.229604,0.485132567,255,
0.902019,0.403088,-0.135908,-0.20374,0.471657617,256,
0.908766,0.383812,-0.130052,-0.177632,0.442468419,257,
0.915834,0.358192,-0.138348,-0.149084,0.411907413,258,
0.923026,0.343552,-0.122976,-0.116144,0.382936681,259,
0.929897,0.329888,-0.114924,-0.088328,0.360326871,260,
0.936571,0.334768,-0.119804,-0.099796,0.369299139,261,
0.942971,0.321592,-0.117364,-0.112972,0.360497428,262,
0.950135,0.28914,-0.108092,-0.127856,0.334115215,263,
0.956923,0.263032,-0.109312,-0.135908,0.315604073,264,
0.96271,0.250832,-0.122976,-0.14274,0.313710848,265,
0.970151,0.240828,-0.123708,-0.151036,0.310022045,266,
0.977842,0.233752,-0.094184,-0.163968,0.300659489,267,
0.984622,0.216428,-0.090524,-0.169824,0.289613302,268,
0.991108,0.229604,-0.109312,-0.178608,0.310753806,269,
0.997874,0.218136,-0.106628,-0.182512,0.303749033,270,
0.004275,0.216916,-0.10858,-0.170312,0.296392214,271,
0.010077,0.226188,-0.106872,-0.158112,0.29594263,272,
0.015826,0.231068,-0.098332,-0.143716,0.289336986,273,
0.022308,0.238388,-0.096624,-0.134688,0.290354771,274,
0.028431,0.250588,-0.088084,-0.127124,0.294471812,275,
0.034174,0.260836,-0.091256,-0.124684,0.303165262,276,
0.040098,0.261324,-0.095404,-0.124928,0.304957639,277,
0.045916,0.255224,-0.101992,-0.124196,0.301606208,278,
0.051741,0.256688,-0.102724,-0.063684,0.28371923,279,
0.057532,0.266204,-0.101016,-0.127612,0.312015423,280,
0.063344,0.27084,-0.107116,-0.131516,0.3195694,281,
0.069578,0.270596,-0.1098,-0.139812,0.323767865,282,
0.077751,0.270596,-0.110776,-0.148352,0.327874722,283,
0.085063,0.269376,-0.116388,-0.160796,0.33461164,284,
0.091582,0.270596,-0.117852,-0.16714,0.339185891,285,
0.098786,0.274012,-0.11834,-0.175192,0.346091272,286,
0.105498,0.279868,-0.119804,-0.178608,0.352958799,287,
0.11263,0.284992,-0.11712,-0.179828,0.356757122,288,
0.118973,0.288896,-0.112484,-0.177876,0.357426105,289,
0.126149,0.297924,-0.1098,-0.17324,0.361699941,290,
0.137663,0.307684,-0.094916,-0.167628,0.363011897,291,
0.144473,0.308416,-0.093696,-0.16104,0.360323814,292,
0.151136,0.304024,-0.099064,-0.162748,0.358791277,293,
0.15752,0.292556,-0.100772,-0.158356,0.347592623,294,
0.164611,0.288652,-0.114192,-0.15372,0.346395191,295,
0.171491,0.279624,-0.118828,-0.151524,0.339513177,296,
0.179257,0.275964,-0.12566,-0.146888,0.336931224,297,
0.185651,0.274744,-0.185928,-0.147864,0.363204143,298,
0.191912,0.267424,-0.12688,-0.144204,0.329255104,299,
0.197768,0.261568,-0.127368,-0.1403,0.322993059,300,
0.203537,0.259616,-0.122732,-0.137128,0.318225863,301,
0.210149,0.260348,-0.117364,-0.134688,0.315747125,302,
0.217319,0.266448,-0.109556,-0.133224,0.317404612,303,
0.225643,0.262788,-0.111752,-0.130296,0.31388388,304,
0.232524,0.265228,-0.104432,-0.133468,0.314746949,305,
0.238884,0.266204,-0.102236,-0.134932,0.315473317,306,
0.246101,0.264252,-0.09272,-0.1403,0.313225491,307,
0.25251,0.266692,-0.088816,-0.139324,0.313726125,308,
0.259108,0.2684,-0.083204,-0.14152,0.314625771,309,
0.265281,0.269132,-0.077592,-0.142984,0.314478896,310,
0.271245,0.271572,-0.072468,-0.149084,0.318165053,311,
0.277008,0.270596,-0.073688,-0.151524,0.318765806,312,
0.28283,0.270352,-0.070516,-0.155916,0.319957043,313,
0.288658,0.277184,-0.066368,-0.153964,0.323945357,314,
0.294395,0.278648,-0.064416,-0.1586,0.327029187,315,
0.302279,0.287676,-0.06832,-0.167628,0.339888584,316,
0.309712,0.303048,-0.067832,-0.169336,0.353714506,317,
0.316168,0.30622,-0.076372,-0.174216,0.360492143,318,
0.322972,0.30988,-0.088084,-0.176656,0.367412231,319,
0.329366,0.312564,-0.09516,-0.182512,0.374248994,320,
0.336235,0.318176,-0.11468,-0.194712,0.390256624,321,
0.343345,0.326716,-0.12078,-0.204472,0.40390587,322,
0.350225,0.336964,-0.124684,-0.211304,0.416821566,323,
0.356668,0.343796,-0.129808,-0.211792,0.424148155,324,
0.362446,0.353068,-0.131028,-0.20618,0.429343152,325,
0.36829,0.35868,-0.132736,-0.186172,0.425358909,326,
0.374098,0.359412,-0.120536,-0.17202,0.416289315,327,
0.379917,0.354532,-0.113216,-0.149572,0.401101714,328,
0.387044,0.342088,-0.112484,-0.138836,0.38594337,329,
0.392792,0.33428,-0.127612,-0.143228,0.385411729,330,
0.398589,0.332572,-0.13176,-0.152744,0.388967302,331,
0.405733,0.324276,-0.135176,-0.15738,0.384962257,332,
0.41156,0.315736,-0.138104,-0.158844,0.379464561,333,
0.417358,0.309392,-0.136884,-0.15616,0.372621235,334,
0.423193,0.303536,-0.129076,-0.151768,0.363081593,335,
0.42897,0.288652,-0.123464,-0.146156,0.346301765,336,
0.434724,0.282308,-0.112972,-0.138836,0.334269225,337,
0.441128,0.266448,-0.112484,-0.132736,0.318223243,338,
0.449127,0.245464,-0.113216,-0.122976,0.296973963,339,
0.456897,0.2318,-0.109068,-0.121756,0.283639899,340,
0.464622,0.21716,-0.102968,-0.123464,0.270192957,341,
0.47177,0.2074,-0.09028,-0.130784,0.261284697,342,
0.47854,0.196664,-0.081252,-0.141764,0.255686621,343,
0.484914,0.17812,-0.059048,-0.159576,0.246328846,344,
0.491803,0.147132,-0.049776,-0.170068,0.230322817,345,
0.49817,0.141032,-0.037332,-0.247904,0.287645783,346,
0.50497,0.141764,-0.021472,-0.193736,0.241022232,347,
0.511702,0.145668,-0.005124,-0.198372,0.246164319,348,
0.51923,0.144448,0.000244,-0.204472,0.250347924,349,
0.527046,0.153476,0.0244,-0.2135,0.264069106,350,
0.533826,0.161284,0.039284,-0.223748,0.278601739,351,
0.540293,0.177632,0.047092,-0.235948,0.29906896,352,
0.547139,0.195444,0.04392,-0.238632,0.311564688,353,
0.553327,0.21228,0.0366,-0.245952,0.326947618,354,
0.559138,0.219844,0.023424,-0.244244,0.329446809,355,
0.564866,0.237168,0.010004,-0.24278,0.339545091,356,
0.570848,0.25132,0.01464,-0.239364,0.347377599,357,
0.57666,0.27206,-0.004392,-0.307928,0.410920414,358,
0.582419,0.266204,-0.027084,-0.263032,0.375211868,359,
0.588456,0.30012,-0.041968,-0.271572,0.406920973,360,
0.594273,0.356484,-0.05246,-0.271084,0.450909557,361,
0.600206,0.365268,-0.07198,-0.264252,0.456542388,362,
0.607671,0.367952,-0.071736,-0.256444,0.454200675,363,
0.614066,0.36844,-0.061,-0.237168,0.442399925,364,
0.620952,0.366244,-0.051972,-0.224968,0.432950756,365,
0.628032,0.35136,-0.041724,-0.212036,0.412497281,366,
0.635451,0.363316,-0.028548,-0.196664,0.414113792,367,
0.641964,0.351116,-0.019764,-0.184952,0.397341545,368,
0.649356,0.328668,-0.005856,-0.16958,0.369884203,369,
0.655749,0.315492,-0.002196,-0.16104,0.354222961,370,
0.662636,0.30012,-0.060268,-0.154696,0.342979735,371,
0.669516,0.30012,-0.011712,-0.152744,0.336956844,372,
0.676335,0.290848,-0.060024,-0.137616,0.327312699,373,
0.683547,0.28548,-0.005612,-0.143472,0.319553657,374,
0.690418,0.277184,0.0122,-0.146888,0.313936131,375,
0.69659,0.268644,0.012688,-0.141276,0.303791857,376,
0.703479,0.2562,-0.005124,-0.150548,0.297202617,377,
0.710563,0.25254,-0.004636,-0.137128,0.287405693,378,
0.716972,0.240096,-0.000244,-0.127856,0.272017105,379,
0.72377,0.250588,-0.009272,-0.116632,0.276556213,380,
0.730406,0.257176,-0.046604,-0.11468,0.285417116,381,
0.736587,0.24034,-0.078568,-0.117364,0.278766129,382,
0.742344,0.251076,-0.063684,-0.186416,0.319132785,383,
0.751375,0.256688,-0.029036,-0.133956,0.290991458,384,
0.758663,0.257908,-0.04026,-0.144936,0.298569671,385,
0.765676,0.16226,-0.05124,-0.163236,0.235796177,386,
0.77278,0.135908,-0.061488,-0.163968,0.221669266,387,
0.780596,0.197396,-0.01952,-0.133956,0.239354175,388,
0.78699,0.21228,0.006832,-0.116632,0.24230662,389,
0.793779,0.216184,0.000732,-0.126392,0.250421635,390,
0.800241,0.231312,-0.00244,-0.134444,0.267556319,391,
0.807036,0.223992,0.003172,-0.136396,0.262271513,392,
0.813414,0.216916,0.01586,-0.142008,0.259750578,393,
0.820275,0.227164,0.024156,-0.143472,0.269761395,394,
0.829124,0.237656,0.020252,-0.145912,0.27960835,395,
0.836671,0.233508,0.046116,-0.143472,0.27791525,396,
0.844305,0.238632,0.037576,-0.159088,0.289251066,397,
0.851938,0.233264,0.052216,-0.170068,0.293362794,398,
0.858873,0.22692,0.051972,-0.171532,0.289166046,399,
0.865705,0.234484,0.124684,-0.182024,0.321965189,400,
0.872813,0.247416,0.048068,-0.177876,0.308488381,401,
0.87983,0.272792,0.049044,-0.183732,0.332533062,402,
0.88622,0.277916,0.061488,-0.175924,0.334615198,403,
0.89364,0.297192,0.066612,-0.167384,0.347530785,404,
0.900111,0.327936,0.082472,-0.165188,0.376338579,405,
0.907475,0.351848,0.079788,-0.167628,0.397821928,406,
0.914543,0.352336,0.056852,-0.167628,0.394299319,407,
0.921681,0.320372,0.031232,-0.182512,0.370032818,408,
0.928025,0.322568,0.013176,-0.197396,0.378403095,409,
0.934815,0.326472,0.005612,-0.199348,0.382563833,410,
0.941305,0.337208,0.011468,-0.208132,0.396433702,411,
0.948111,0.337696,0.020008,-0.2135,0.400026447,412,
0.954489,0.344528,0.0122,-0.219112,0.40848311,413,
0.961344,0.345504,0.005612,-0.218624,0.408902142,414,
0.967526,0.337452,-0.011468,-0.209596,0.397411437,415,
0.973291,0.335744,-0.040504,-0.12932,0.362061141,416,
0.979087,0.344284,-0.046604,-0.166164,0.385115412,417,
0.985807,0.362096,-0.05246,-0.151524,0.396011474,418,
0.992229,0.38796,-0.046116,-0.152988,0.419577139,419,
0.001202,0.416508,-0.049532,-0.169336,0.452335068,420,
0.007658,0.43432,-0.059536,-0.199104,0.481477726,421,
0.014456,0.432612,-0.053436,-0.234972,0.495197324,422,
0.020971,0.49776,-0.04758,-0.267912,0.56727922,423,
0.02788,0.454084,-0.032452,-0.295972,0.542996166,424,
0.035608,0.419436,-0.000488,-0.31232,0.522944145,425,
0.042085,0.380396,0.01586,-0.304756,0.48767702,426,
0.048849,0.365512,0.035868,-0.28426,0.464423603,427,
0.055222,0.33672,0.045628,-0.238632,0.415219826,428,
0.0621,0.314028,0.042456,-0.216916,0.384016468,429,
0.068458,0.28914,0.02928,-0.2013,0.353526446,430,
0.075811,0.271328,0.001952,-0.146644,0.308426906,431,
0.082295,0.259616,0.000244,-0.245708,0.357453421,432,
0.089357,0.247904,-0.000488,-0.176656,0.304407578,433,
0.096543,0.229116,-0.000244,-0.177144,0.289610424,434,
0.103354,0.244976,-0.007564,-0.18178,0.30514656,435,
0.109944,0.192272,-0.01342,-0.179096,0.263104534,436,
0.116733,0.159576,-0.031476,-0.188856,0.249242507,437,
0.12249,0.134688,-0.051972,-0.194956,0.242589753,438,
0.128299,0.113704,-0.073932,-0.194468,0.237091424,439,
0.134113,0.1037,-0.092232,-0.190564,0.235743653,440,
0.139943,0.096624,-0.099552,-0.183976,0.230421281,441,
0.14569,0.089304,-0.1037,-0.172508,0.220199692,442,
0.152878,0.083936,-0.115412,-0.166164,0.21903346,443,
0.159298,0.077836,-0.122488,-0.1464,0.206142458,444,
0.16706,0.083936,-0.119072,-0.137616,0.200403485,445,
0.173437,0.11346,-0.105408,-0.141276,0.209625681,446,
0.181099,0.15616,-0.083204,-0.161528,0.239583276,447,
0.187877,0.178852,-0.08784,-0.182024,0.269882641,448,
0.194686,0.210328,-0.093696,-0.17812,0.291107441,449,
0.201185,0.22082,-0.086132,-0.168604,0.290873688,450,
0.207975,0.231556,-0.086132,-0.167628,0.298556609,451,
0.214319,0.261324,-0.094916,-0.173972,0.327971854,452,
0.221425,0.299144,-0.122732,-0.183488,0.37177698,453,
0.228177,0.258396,-0.111996,-0.191052,0.340312303,454,
0.236323,0.324032,-0.062464,-0.205692,0.388854326,455,
0.242719,0.362584,-0.016104,-0.21716,0.422947942,456,
0.250429,0.327936,-0.027572,-0.227408,0.400020792,457,
0.256825,0.36722,-0.035624,-0.234728,0.437283468,458,
0.263926,0.363804,-0.012932,-0.253272,0.443471863,459,
0.270777,0.3294,-0.001708,-0.25742,0.418057811,460,
0.277221,0.305244,-0.01708,-0.268888,0.407144179,461,
0.284029,0.28792,-0.02562,-0.280112,0.402513408,462,
0.291244,0.261812,-0.014396,-0.27816,0.382263984,463,
0.29802,0.248392,-0.006832,-0.188856,0.312108716,464,
0.304423,0.235704,-0.027084,-0.221552,0.324615476,465,
0.311547,0.215696,-0.059536,-0.179828,0.287066907,466,
0.318324,0.221308,-0.0976,-0.144936,0.281974174,467,
0.324728,0.2257,-0.108824,-0.11834,0.277105591,468,
0.331907,0.234972,-0.120292,-0.094672,0.280436791,469,
0.338645,0.226432,-0.128832,-0.071736,0.270213228,470,
0.344816,0.262056,-0.145912,-0.053436,0.304662215,471,
0.35069,0.271328,-0.149328,-0.034892,0.311665184,472,
0.356444,0.266936,-0.142008,-0.034892,0.304365819,473,
0.363057,0.250832,-0.062952,-0.022448,0.259583434,474,
0.370487,0.23912,-0.098332,-0.025132,0.259767538,475,
0.377242,0.240584,-0.070028,-0.049776,0.255464737,476,
0.384268,0.289628,-0.04636,-0.049776,0.297508451,477,
0.390724,0.265228,-0.047336,-0.072956,0.279122136,478,
0.397833,0.234484,-0.039528,-0.099064,0.257602184,479,
0.404849,0.20862,-0.029036,-0.187392,0.281924024,480,
0.411766,0.207644,-0.018544,-0.144692,0.25376305,481,
0.418779,0.212524,-0.029036,-0.155428,0.264891304,482,
0.426214,0.2135,-0.019276,-0.146156,0.259452097,483,
0.432605,0.211304,-0.033184,-0.13298,0.251861547,484,
0.441048,0.206424,-0.065636,-0.11712,0.246243876,485,
0.44742,0.222772,-0.071492,-0.106872,0.257216046,486,
0.454195,0.23912,-0.077348,-0.092232,0.267708478,487,
0.46061,0.249612,-0.071736,-0.083204,0.272718004,488,
0.468978,0.276208,-0.079544,-0.082472,0.299031333,489,
0.475612,0.27694,-0.081984,-0.081252,0.300031711,490,
0.483836,0.29646,-0.087108,-0.088816,0.321503681,491,
0.490302,0.309392,-0.072712,-0.101992,0.333785579,492,
0.497337,0.309636,-0.075396,-0.112728,0.338033447,493,
0.504427,0.324032,-0.09638,-0.124928,0.360406502,494,
0.511606,0.33794,-0.105408,-0.14396,0.382150195,495,
0.518649,0.351116,-0.105896,-0.166164,0.402624991,496,
0.525805,0.35624,-0.111508,-0.177632,0.413393395,497,
0.532393,0.366488,-0.11224,-0.189588,0.427615343,498,
0.540714,0.371368,-0.104676,-0.199104,0.434181597,499,
0.547179,0.381128,-0.088328,-0.208864,0.443491329,500,
0.554601,0.394792,-0.074664,-0.212036,0.454306836,501,
0.561322,0.401868,-0.057828,-0.213256,0.458606682,502,
0.568313,0.410408,-0.045384,-0.203008,0.460115944,503,
0.575091,0.418948,-0.02806,-0.18666,0.459507068,504,
0.581616,0.431392,-0.004392,-0.174216,0.465262896,505,
0.59044,0.378932,0.013908,-0.167872,0.414685304,506,
0.596864,0.438956,0.03538,-0.15982,0.468483241,507,
0.604146,0.429684,0.034648,-0.176412,0.465778936,508,
0.610592,0.406992,0.015372,-0.206668,0.456717033,509,
0.617676,0.388692,-0.006588,-0.227164,0.450253657,510,
0.624706,0.379176,-0.054168,-0.241316,0.452705228,511,
0.63637,0.389912,-0.087596,-0.240584,0.466460168,512,
0.64347,0.389424,-0.132736,-0.240584,0.476603146,513,
0.650602,0.388448,-0.15494,-0.241804,0.48308118,514,
0.65832,0.382348,-0.160308,-0.242292,0.480202105,515,
0.664722,0.365024,-0.164944,-0.224724,0.459292848,516,
0.671611,0.350872,-0.155916,-0.212768,0.438966037,517,
0.677986,0.321348,-0.147376,-0.199836,0.406101772,518,
0.684785,0.28548,-0.139324,-0.182268,0.366239855,519,
0.691909,0.244732,-0.133712,-0.166652,0.324877731,520,
0.698678,0.210816,-0.117852,-0.149816,0.2842135,521,
0.707182,0.16714,-0.0976,-0.138104,0.23776933,522,
0.713938,0.136152,-0.07686,-0.130784,0.203836408,523,
0.722427,0.103456,-0.044164,-0.122732,0.166483473,524,
0.730297,0.082228,-0.04148,-0.124928,0.155206442,525,
0.736713,0.072712,-0.0244,-0.12566,0.147216951,526,
0.744437,0.075152,-0.00854,-0.13176,0.151925812,527,
0.750897,0.064416,0.018056,-0.129564,0.145815878,528,
0.758347,0.072712,0.027328,-0.133712,0.154637491,529,
0.76534,0.086132,0.025864,-0.146156,0.171607821,530,
0.77237,0.098088,0.027572,-0.159576,0.189330322,531,
0.778712,0.133712,0.02806,-0.192516,0.236069212,532,
0.786421,0.16348,-0.000488,-0.21472,0.269871501,533,
0.792825,0.212768,-0.0244,-0.226676,0.31184546,534,
0.800013,0.25498,-0.04514,-0.244732,0.356295063,535,
0.807146,0.326472,-0.081252,-0.258152,0.424061681,536,
0.814763,0.399672,-0.1098,-0.273768,0.496731985,537,
0.821261,0.44896,-0.121268,-0.2928,0.549547859,538,
0.828034,0.436516,-0.126636,-0.293044,0.540793566,539,
0.834421,0.392352,-0.140544,-0.28426,0.504476417,540,
0.841333,0.366488,-0.146888,-0.251564,0.468160213,541,
0.847748,0.378932,-0.1403,-0.1952,0.448750031,542,
0.854548,0.416996,-0.122976,-0.135664,0.455426703,543,
0.861008,0.461404,-0.111508,-0.095404,0.484179314,544,
0.868209,0.464576,-0.106384,-0.07442,0.482376152,545,
0.874667,0.426268,-0.090036,-0.084668,0.443823793,546,
0.881859,0.374296,-0.111996,-0.0976,0.402698845,547,
0.888853,0.311344,-0.105896,-0.132736,0.354637695,548,
0.897619,0.201544,-0.08784,-0.147864,0.264952094,549,
0.904011,0.205936,-0.08296,-0.165188,0.276729241,550,
0.911213,0.178364,-0.055144,-0.172752,0.254357683,551,
0.918826,0.181048,-0.034404,-0.174948,0.254103948,552,
0.925259,0.16836,-0.022692,-0.185684,0.251671541,553,
0.932374,0.148352,-0.009516,-0.167384,0.223866642,554,
0.939559,0.144204,-0.000976,-0.154208,0.211129944,555,
0.946979,0.150792,0.035868,-0.125416,0.199383835,556,
0.953971,0.130296,0.040504,-0.137128,0.193446918,557,
0.961066,0.184952,0.05124,-0.109556,0.220987097,558,
0.968108,0.13542,0.058804,-0.093696,0.174858306,559,
0.974611,0.136152,0.047824,-0.103456,0.17756026,560,
0.981733,0.156404,0.049044,-0.101748,0.192925324,561,
0.988929,0.2379,0.048312,-0.099064,0.262191029,562,
0.996523,0.193492,0.037576,-0.10492,0.223291998,563,
0.003163,0.203496,0.0244,-0.10614,0.230806589,564,
0.010026,0.213256,0.022448,-0.107604,0.239918017,565,
0.016705,0.223504,0.027572,-0.108092,0.249796184,566,
0.023683,0.22814,0.025864,-0.111508,0.255246626,567,
0.031463,0.233752,0.033916,-0.11346,0.262037143,568,
0.03902,0.235216,0.039284,-0.115412,0.264933443,569,
0.045425,0.237412,0.039284,-0.118096,0.268056628,570,
0.052655,0.250832,0.04148,-0.124196,0.282952167,571,
0.059739,0.254492,0.042944,-0.128588,0.288349162,572,
0.066854,0.261324,0.03538,-0.1281,0.293175012,573,
0.073933,0.27938,0.040504,-0.131272,0.311329562,574,
0.081097,0.293288,0.033916,-0.140544,0.326987403,575,
0.088336,0.30256,0.01464,-0.148596,0.337398362,576,
0.094727,0.31598,0.003172,-0.156404,0.352584221,577,
0.101642,0.328424,-0.018788,-0.163236,0.367234672,578,
0.10802,0.338428,-0.019032,-0.172508,0.380335034,579,
0.114808,0.358436,-0.02074,-0.187392,0.404996636,580,
0.121325,0.371856,-0.029524,-0.193736,0.420335805,581,
0.128164,0.380884,-0.033428,-0.19276,0.42818976,582,
0.134538,0.39406,-0.02684,-0.203252,0.444201581,583,
0.14138,0.403088,-0.024644,-0.205692,0.453206864,584,
0.148492,0.407968,-0.034648,-0.207888,0.459190367,585,
0.156792,0.39894,-0.062464,-0.198616,0.450003545,586,
0.163891,0.405528,-0.078812,-0.16958,0.446566531,587,
0.171054,0.428708,-0.102724,-0.136152,0.461389355,588,
0.178204,0.456768,-0.112484,-0.113704,0.483961006,589,
0.185023,0.47092,-0.114192,-0.096868,0.494154701,590,
0.192252,0.472628,-0.112972,-0.112728,0.49884617,591,
0.200302,0.501908,-0.09272,-0.155184,0.533470442,592,
0.206707,0.514108,-0.032696,-0.2013,0.553080242,593,
0.214118,0.463844,0.004392,-0.27938,0.541501367,594,
0.220579,0.4331,0.037332,-0.314272,0.536410457,595,
0.227662,0.404552,0.06222,-0.316224,0.517234248,596,
0.234714,0.372832,0.061732,-0.300364,0.482734992,597,
0.242009,0.31964,0.052216,-0.272548,0.423294995,598,
0.248987,0.293532,0.052948,-0.253028,0.391136414,599,
0.256024,0.263276,0.044652,-0.238388,0.357962137,600,
0.262894,0.244488,0.034648,-0.224968,0.334044109,601,
0.270321,0.226432,0.024644,-0.217892,0.315207394,602,
0.277376,0.197152,0.01952,-0.212524,0.290544991,603,
0.285021,0.175192,-0.000976,-0.200812,0.266493243,604,
0.291537,0.148108,-0.015128,-0.187148,0.239142656,605,
0.298949,0.116876,-0.032452,-0.166164,0.20572702,606,
0.305972,0.093208,-0.053436,-0.145668,0.181003601,607,
0.313049,0.072468,-0.080764,-0.132248,0.171067145,608,
0.31952,0.057828,-0.09516,-0.116388,0.161076596,609,
0.326354,0.049532,-0.105164,-0.112972,0.162097374,610,
0.332958,0.05002,-0.127124,-0.099796,0.169179648,611,
0.339359,0.12078,-0.133956,-0.10004,0.206252321,612,
0.346224,0.071004,-0.137372,-0.10248,0.185512223,613,
0.352626,0.090036,-0.1098,-0.105896,0.177134085,614,
0.359509,0.15372,-0.110532,-0.145668,0.238885595,615,
0.365918,0.19276,-0.127856,-0.171288,0.287824866,616,
0.372808,0.229116,-0.115656,-0.215208,0.334940196,617,
0.379982,0.27694,-0.108824,-0.227164,0.374355325,618,
0.386812,0.314272,-0.103456,-0.220088,0.397377354,619,
0.39369,0.33794,-0.095892,-0.219844,0.41440331,620,
0.401494,0.35258,-0.090768,-0.223992,0.427462165,621,
0.409296,0.386008,-0.068808,-0.22814,0.453634849,622,
0.41689,0.402844,-0.051728,-0.240828,0.472183439,623,
0.423865,0.44164,-0.041236,-0.24644,0.507423857,624,
0.431024,0.464332,-0.006588,-0.238388,0.521992765,625,
0.438168,0.47092,0,-0.187636,0.50692496,626,
0.445493,0.443592,-0.020984,-0.167872,0.474758043,627,
0.452543,0.410164,-0.010004,-0.16348,0.441656311,628,
0.459739,0.341356,-0.011468,-0.171532,0.382202382,629,
0.466853,0.30012,-0.014396,-0.189344,0.355148433,630,
0.473938,0.266936,-0.016348,-0.198372,0.332976779,631,
0.481305,0.23668,-0.02928,-0.199836,0.311141716,632,
0.488363,0.19642,-0.03904,-0.200568,0.283429816,633,
0.495169,0.170556,-0.057584,-0.195932,0.266072574,634,
0.503554,0.148596,-0.053436,-0.126636,0.202417523,635,
0.510651,0.135176,-0.05978,-0.169824,0.225136382,636,
0.517047,0.131516,-0.054168,-0.153232,0.209070984,637,
0.524121,0.122244,-0.058072,-0.13298,0.189735693,638,
0.531331,0.130052,-0.072224,-0.10736,0.183455713,639,
0.53842,0.144204,-0.085156,-0.126636,0.209959554,640,
0.54647,0.152012,-0.11346,-0.077348,0.204850025,641,
0.55281,0.189588,-0.0915,-0.068564,0.221397565,642,
0.560048,0.24888,-0.100528,-0.048312,0.272729138,643,
0.566869,0.267424,-0.103456,-0.042456,0.289864195,644,
0.573257,0.288652,-0.090524,-0.054412,0.307368244,645,
0.580125,0.290848,-0.085644,-0.067832,0.310690576,646,
0.58655,0.291336,-0.085888,-0.07686,0.313306357,647,
0.593358,0.293044,-0.078324,-0.081984,0.314214594,648,
0.599829,0.303536,-0.06832,-0.088816,0.323558353,649,
0.607243,0.295972,-0.078324,-0.094428,0.320391512,650,
0.613644,0.293532,-0.09272,-0.09882,0.323300829,651,
0.620562,0.293044,-0.101748,-0.096624,0.324905584,652,
0.627687,0.286456,-0.102236,-0.090036,0.317199812,653,
0.634741,0.282552,-0.1037,-0.091012,0.314439989,654,
0.641233,0.281088,-0.099064,-0.090036,0.311336829,655,
0.64804,0.275964,-0.101504,-0.094672,0.308904482,656,
0.655045,0.27572,-0.10126,-0.098088,0.309671377,657,
0.661586,0.28304,-0.079544,-0.099308,0.310323973,658,
0.668658,0.292556,-0.085888,-0.102724,0.321742105,659,
0.675749,0.294996,-0.090036,-0.09882,0.323874225,660,
0.682908,0.291824,-0.107848,-0.099064,0.326505918,661,
0.69081,0.29402,-0.122732,-0.181048,0.366455021,662,
0.697226,0.306952,-0.11712,-0.152012,0.362000377,663,
0.704554,0.317932,-0.107604,-0.173728,0.377942847,664,
0.711703,0.327448,-0.085156,-0.192272,0.389155829,665,
0.718656,0.342332,-0.066368,-0.2074,0.405722405,666,
0.725878,0.361364,-0.035136,-0.21472,0.421809385,667,
0.732386,0.36722,-0.02196,-0.213256,0.42521864,668,
0.739889,0.380396,0.060268,-0.20252,0.435141011,669,
0.746317,0.394792,0.010492,-0.19276,0.439462425,670,
0.75368,0.401624,0.0244,-0.187636,0.443964487,671,
0.760145,0.406016,0.027084,-0.172996,0.442165299,672,
0.767273,0.408944,0.017568,-0.151768,0.436551664,673,
0.774065,0.409188,0.029524,-0.145912,0.435427144,674,
0.780523,0.392352,0.025376,-0.154452,0.422420944,675,
0.787711,0.372344,0.000976,-0.173484,0.410776953,676,
0.794734,0.359168,-0.008784,-0.203984,0.413144385,677,
0.801233,0.361852,-0.034404,-0.219356,0.424543943,678,
0.808458,0.380152,-0.057584,-0.223504,0.444730815,679,
0.816566,0.398696,-0.093208,-0.228384,0.468834174,680,
0.822969,0.384788,-0.138104,-0.231068,0.46960296,681,
0.830177,0.373076,-0.16348,-0.234728,0.470115567,682,
0.837269,0.36356,-0.167628,-0.241804,0.467700967,683,
0.844366,0.373564,-0.182024,-0.232776,0.476306062,684,
0.851858,0.3477,-0.181536,-0.213012,0.446345966,685,
0.859359,0.299876,-0.161772,-0.193004,0.391594611,686,
0.865757,0.260592,-0.1403,-0.17568,0.344174001,687,
0.873539,0.22692,-0.115656,-0.152256,0.296733696,688,
0.880018,0.204228,-0.103212,-0.135664,0.266019762,689,
0.887186,0.16714,-0.09394,-0.123952,0.228308128,690,
0.89399,0.1586,-0.083448,-0.128832,0.22071523,691,
0.900454,0.123952,-0.069784,-0.129808,0.192572121,692,
0.907265,0.107848,-0.052704,-0.133956,0.17986971,693,
0.914274,0.089548,-0.010248,-0.14396,0.169848013,694,
0.921125,0.08418,-0.003904,-0.139568,0.163036009,695,
0.927532,0.091256,0.005368,-0.142984,0.169708271,696,
0.934317,0.098088,-0.000244,-0.148596,0.178050798,697,
0.941396,0.177876,-0.000488,-0.158112,0.237990576,698,
0.9478,0.156892,-0.007076,-0.172264,0.233109535,699,
0.95508,0.194468,-0.021472,-0.181536,0.266897301,700,
0.963787,0.21716,-0.066368,-0.206668,0.307042081,701,
0.97067,0.290604,-0.102724,-0.217648,0.377324207,702,
0.978384,0.350384,-0.115656,-0.231312,0.435488805,703,
0.985861,0.404552,-0.123708,-0.239364,0.486066986,704,
0.993041,0.418216,-0.125904,-0.240828,0.49875301,705,
0.999966,0.437736,-0.125904,-0.233264,0.511738914,706,
0.006384,0.378444,-0.124684,-0.215208,0.452858084,707,
0.013184,0.412604,-0.119072,-0.172508,0.462795,708,
0.019667,0.404308,-0.106384,-0.147132,0.443204625,709,
0.027716,0.398208,-0.095892,-0.098088,0.421172343,710,
0.034126,0.411628,-0.07442,-0.084912,0.426832513,711,
0.040998,0.392352,-0.08296,-0.087596,0.410482049,712,
0.047408,0.366488,-0.081008,-0.095404,0.38726951,713,
0.054223,0.344528,-0.089548,-0.104676,0.371046428,714,
0.061161,0.253028,-0.083936,-0.126636,0.295135727,715,
0.067565,0.269376,-0.084668,-0.141764,0.315957483,716,
0.074541,0.222284,-0.083448,-0.164212,0.288685515,717,
0.081215,0.193004,-0.030988,-0.190076,0.27265305,718,
0.088019,0.185196,-0.021472,-0.188124,0.264857027,719,
0.095013,0.154208,-0.03172,-0.186416,0.24400244,720,
0.101531,0.135664,-0.048068,-0.187636,0.236479433,721,
0.108305,0.144692,-0.047824,-0.185684,0.240211277,722,
0.114986,0.14396,-0.017568,-0.187392,0.236957544,723,
0.121513,0.153964,-0.0183,-0.179096,0.23688643,724,
0.128669,0.180316,-0.000488,-0.16958,0.247530754,725,
0.141751,0.189588,0.010736,-0.141276,0.236680755,726,
0.1493,0.211792,0.013176,-0.125172,0.246368602,727,
0.155687,0.214476,-0.059292,-0.118584,0.25214611,728,
0.163179,0.23302,-0.008784,-0.119316,0.261938517,729,
0.169678,0.224236,-0.002684,-0.1159,0.252431768,730,
0.176551,0.236192,-0.010004,-0.107116,0.259539165,731,
0.182937,0.235704,-0.00976,-0.099552,0.256051233,732,
0.189815,0.21838,-0.013908,-0.095892,0.238911139,733,
0.196237,0.207156,-0.022204,-0.101992,0.231967657,734,
0.203007,0.21106,-0.028792,-0.110288,0.239872353,735,
0.209475,0.215452,-0.025864,-0.11712,0.246587926,736,
0.216321,0.2257,-0.02684,-0.12322,0.258542151,737,
0.222702,0.233996,-0.027084,-0.128588,0.268370164,738,
0.228526,0.241072,-0.02562,-0.126636,0.273511919,739,
0.235088,0.251808,-0.027084,-0.129808,0.284589052,740,
0.241392,0.261324,-0.028792,-0.13542,0.29573263,741,
0.247209,0.262544,-0.02806,-0.143716,0.300617704,742,
0.252974,0.264984,-0.025376,-0.153232,0.307148999,743,
0.258827,0.272792,-0.00122,-0.155916,0.314208152,744,
0.264751,0.288652,0.017812,-0.155184,0.328206213,745,
0.270585,0.299632,0.013664,-0.153232,0.336817586,746,
0.276427,0.309636,0.01952,-0.147864,0.343684805,747,
0.282254,0.31354,0.01342,-0.151768,0.348598557,748,
0.288326,0.31354,0.015372,-0.149572,0.347728936,749,
0.29796,0.3294,-0.051972,-0.168848,0.373784826,750,
0.304367,0.322324,0.01098,-0.181536,0.370092746,751,
0.31153,0.337208,0.019276,-0.199104,0.392075506,752,
0.318326,0.327204,0.027328,-0.24522,0.409807425,753,
0.324711,0.318664,0.015128,-0.263764,0.413940876,754,
0.33161,0.34404,0.019764,-0.278404,0.443015716,755,
0.337993,0.359168,0.009516,-0.282064,0.456784749,756,
0.344801,0.36966,-0.003172,-0.281576,0.464697343,757,
0.35195,0.351604,-0.009028,-0.284992,0.452688986,758,
0.359177,0.366,-0.0305,-0.28182,0.462934944,759,
0.366594,0.390888,-0.050264,-0.282064,0.484644198,760,
0.373663,0.3904,-0.074908,-0.280844,0.486720372,761,
0.380552,0.398696,-0.10126,-0.281088,0.498219381,762,
0.38735,0.410652,-0.110532,-0.294264,0.517149582,763,
0.393765,0.4209,-0.101748,-0.303536,0.528813359,764,
0.400653,0.419924,-0.078812,-0.304756,0.524808267,765,
0.407057,0.387472,-0.046116,-0.284748,0.483055545,766,
0.413865,0.345504,-0.019276,-0.264496,0.435548748,767,
0.42034,0.303292,-0.000976,-0.242048,0.388038947,768,
0.428055,0.266936,-0.000488,-0.208132,0.338487807,769,
0.4353,0.24522,-0.005368,-0.183244,0.306169932,770,
0.442464,0.219844,-0.023668,-0.173484,0.281048495,771,
0.450333,0.210084,-0.039284,-0.180804,0.279943934,772,
0.457677,0.195688,-0.042212,-0.248148,0.318830796,773,
0.464787,0.169824,-0.049532,-0.200812,0.267617394,774,
0.472803,0.154696,-0.052216,-0.207156,0.263763097,775,
0.479204,0.134444,-0.05124,-0.213012,0.257050265,776,
0.486571,0.122732,-0.052704,-0.211792,0.250393104,777,
0.492952,0.114192,-0.052948,-0.2013,0.237413128,778,
0.500175,0.11346,-0.062464,-0.191784,0.231421748,779,
0.506987,0.108092,-0.064416,-0.17446,0.21510368,780,
0.514706,0.112728,-0.065636,-0.14884,0.197911677,781,
0.522101,0.122488,-0.064904,-0.13054,0.190411478,782,
0.529219,0.117364,-0.070272,-0.119072,0.181357668,783,
0.536315,0.133712,-0.080032,-0.108824,0.190070205,784,
0.543433,0.163724,-0.065392,-0.11712,0.211657167,785,
0.550835,0.200812,-0.065148,-0.127124,0.246435047,786,
0.557228,0.220332,-0.069052,-0.144692,0.272488796,787,
0.564953,0.24644,-0.07198,-0.172996,0.309582638,788,
0.572837,0.268888,-0.080764,-0.188856,0.338363959,789,
0.579215,0.372588,-0.086864,-0.20496,0.43402278,790,
0.586634,0.341112,-0.080276,-0.216672,0.412005326,791,
0.593729,0.358436,-0.073688,-0.222284,0.42815472,792,
0.600723,0.36356,-0.075884,-0.231556,0.437667038,793,
0.607183,0.37698,-0.0671,-0.238388,0.451048965,794,
0.614717,0.3843,-0.046848,-0.24278,0.45697194,795,
0.621193,0.378444,-0.050996,-0.239852,0.450942829,796,
0.628277,0.345748,-0.002684,-0.2379,0.419696668,797,
0.635357,0.314028,-0.044164,-0.233752,0.393959441,798,
0.64255,0.28914,-0.009516,-0.231068,0.3702498,799,
0.649365,0.271572,-0.021228,-0.220088,0.350200952,800,
0.656979,0.243512,-0.0183,-0.217892,0.327276501,801,
0.664107,0.221064,-0.002196,-0.213256,0.307168091,802,
0.670977,0.213744,-0.00732,-0.209596,0.299450435,803,
0.677372,0.199348,-0.005856,-0.200812,0.283018334,804,
0.684448,0.193004,-0.016104,-0.190564,0.271706682,805,
0.692331,0.196176,-0.037332,-0.179096,0.268242574,806,
0.700054,0.207644,-0.03782,-0.165188,0.268017646,807,
0.70777,0.216916,-0.051484,-0.160552,0.274736416,808,
0.714164,0.224968,-0.06954,-0.144692,0.276373276,809,
0.721551,0.229604,-0.073688,-0.129076,0.273511484,810,
0.728776,0.221308,-0.063928,-0.122,0.26066841,811,
0.735697,0.215208,0.048312,-0.146644,0.264864107,812,
0.742194,0.222772,-0.05734,-0.11224,0.255955186,813,
0.74924,0.247416,-0.08906,-0.101992,0.282043842,814,
0.756438,0.265472,-0.088328,-0.098088,0.296476768,815,
0.763377,0.262788,-0.089304,-0.09272,0.29262559,816,
0.770537,0.260836,-0.090524,-0.098088,0.293003872,817,
0.777967,0.26718,-0.09516,-0.1037,0.301983887,818,
0.784377,0.264252,-0.084912,-0.108824,0.298130559,819,
0.791501,0.260836,-0.075152,-0.108336,0.292266883,820,
0.798496,0.25864,-0.0671,-0.114436,0.290676208,821,
0.805287,0.240584,-0.069784,-0.118584,0.277150921,822,
0.811799,0.221064,-0.082716,-0.116144,0.263060178,823,
0.818541,0.24034,-0.076372,-0.1098,0.275049156,824,
0.824951,0.247904,-0.076372,-0.10736,0.28074053,825,
0.832126,0.257664,-0.06588,-0.106628,0.286531746,826,
0.838897,0.26718,-0.081984,-0.105408,0.298692777,827,
0.845294,0.26108,-0.080764,-0.1037,0.292299983,828,
0.852472,0.279136,-0.064904,-0.102236,0.304272305,829,
0.860078,0.286456,-0.124196,-0.108092,0.330402129,830,
0.867859,0.290116,-0.05368,-0.108824,0.314470188,831,
0.874243,0.309148,-0.035624,-0.107604,0.329272192,832,
0.881419,0.313784,-0.072956,-0.107848,0.339726607,833,
0.88844,0.312564,-0.08784,-0.115656,0.344656974,834,
0.895774,0.321348,-0.095404,-0.135176,0.36144019,835,
0.902256,0.327692,-0.101504,-0.171532,0.383547045,836,
0.909762,0.338916,-0.122,-0.184464,0.404691268,837,
0.916215,0.348676,-0.11834,-0.195688,0.416980937,838,
0.923969,0.346236,-0.119316,-0.204716,0.419552519,839,
0.93044,0.351604,-0.105652,-0.206668,0.421306753,840,
0.937999,0.359412,-0.088816,-0.198372,0.420019902,841,
0.944422,0.371368,-0.006832,-0.188856,0.416686281,842,
0.952095,0.383812,-0.040748,-0.178608,0.42529151,843,
0.959018,0.393572,-0.019276,-0.167384,0.428121346,844,
0.965345,0.41236,-0.005612,-0.1586,0.441844117,845,
0.97252,0.425292,0.06222,-0.15616,0.457307948,846,
0.980239,0.43676,0.022936,-0.16836,0.468647466,847,
0.986703,0.42334,0.026352,-0.20008,0.468981012,848,
0.994064,0.393816,-0.005124,-0.222528,0.452367116,849,
0.001716,0.3782,-0.085156,-0.222528,0.44699608,850,
0.008553,0.380152,-0.117364,-0.211304,0.450487771,851,
0.014956,0.382592,-0.13664,-0.192272,0.449461511,852,
0.022019,0.377956,-0.152256,-0.182268,0.446379044,853,
0.028413,0.367708,-0.162992,-0.19276,0.446017918,854,
0.035442,0.36234,-0.165676,-0.204228,0.44771407,855,
0.043229,0.348188,-0.165432,-0.208864,0.438436769,856,
0.050304,0.312076,-0.155428,-0.203984,0.403929159,857,
0.056734,0.315736,-0.13664,-0.18666,0.391409845,858,
0.064197,0.310612,-0.117852,-0.164456,0.370694867,859,
0.0713,0.2806,-0.101504,-0.151524,0.334662434,860,
0.078446,0.190564,-0.089792,-0.14274,0.254464043,861,
0.086137,0.215452,-0.082228,-0.133224,0.266326196,862,
0.092538,0.1891,-0.0793,-0.132736,0.244266546,863,
0.099321,0.1586,-0.082472,-0.125416,0.218368413,864,
0.10612,0.138836,-0.082716,-0.119804,0.201172488,865,
0.113207,0.116632,-0.060512,-0.119804,0.177813734,866,
0.1201,0.099796,-0.047092,-0.121268,0.16395983,867,
0.126529,0.08296,-0.032696,-0.120292,0.149738289,868,
0.133722,0.078324,-0.017568,-0.125172,0.148698733,869,
0.141217,0.08906,0.002684,-0.13298,0.160070509,870,
0.148236,0.096624,0.016348,-0.150304,0.179428947,871,
0.154599,0.184708,0.02684,-0.161772,0.246997188,872,
0.162125,0.166164,0.01586,-0.179096,0.244821142,873,
0.168504,0.198128,0.002684,-0.194224,0.277461476,874,
0.176226,0.215696,-0.016348,-0.211304,0.302392794,875,
0.183211,0.2745,-0.040016,-0.22326,0.356085043,876,
0.190933,0.353556,-0.0671,-0.243024,0.434240624,877,
0.19733,0.390156,-0.084912,-0.265472,0.479486324,878,
0.205088,0.399428,-0.106872,-0.27572,0.49697673,879,
0.214298,0.360632,-0.12078,-0.288652,0.477454945,880,
0.221167,0.344528,-0.126392,-0.274988,0.458577017,881,
0.227569,0.3538,-0.12932,-0.243756,0.448681502,882,
0.234628,0.381616,-0.12078,-0.203496,0.449031404,883,
0.241525,0.385764,-0.10736,-0.169336,0.434758225,884,
0.248504,0.395524,-0.095892,-0.144692,0.431937826,885,
0.255131,0.386008,-0.093452,-0.065392,0.402506604,886,
0.262038,0.367952,-0.09272,-0.12932,0.400885688,887,
0.270303,0.339648,-0.088328,-0.13786,0.377051693,888,
0.277132,0.29402,-0.085156,-0.149328,0.340585021,889,
0.283527,0.252784,-0.094916,-0.162016,0.314893604,890,
0.290634,0.236924,-0.019032,-0.157624,0.285202602,891,
0.297678,0.222528,-0.061732,-0.160308,0.281119557,892,
0.305206,0.214964,-0.054168,-0.1464,0.265662669,893,
0.311701,0.186904,-0.027328,-0.14152,0.236025073,894,
0.319117,0.164212,-0.006344,-0.14274,0.217670703,895,
0.325508,0.157868,-0.010736,-0.145424,0.214908601,896,
0.332391,0.166896,-0.001708,-0.13176,0.212644985,897,
0.339417,0.163236,0.056852,-0.128344,0.215291254,898,
0.347717,0.170312,0.013908,-0.108824,0.202588926,899,
0.354114,0.167628,0.004148,-0.105652,0.19818854,900,
0.361493,0.1891,0.030988,-0.098576,0.215490821,901,
0.368213,0.209596,0.02684,-0.100772,0.234106524,902,
0.374599,0.21106,0.027328,-0.101748,0.235893617,903,
0.381499,0.214476,0.015128,-0.104676,0.239135685,904,
0.387861,0.216428,0.017568,-0.106628,0.241907512,905,
0.394629,0.230824,0.010736,-0.109556,0.255729345,906,
0.401848,0.244244,-0.061976,-0.11224,0.275851362,907,
0.410344,0.254492,-0.000488,-0.108092,0.276496468,908,
0.416756,0.261568,-0.00244,-0.107116,0.282661652,909,
0.423837,0.2623,-0.060756,-0.109312,0.290588532,910,
0.430853,0.263764,-0.000976,-0.111752,0.286462755,911,
0.437254,0.263276,0.00854,-0.11956,0.289278028,912,
0.444357,0.263032,0.004148,-0.120292,0.289263209,913,
0.451812,0.266448,0.007564,-0.123708,0.293862927,914,
0.458859,0.26596,0.008052,-0.127124,0.294889925,915,
0.465653,0.273036,-0.005612,-0.130784,0.302794661,916,
0.473475,0.27084,-0.011956,-0.121512,0.297089915,917,
0.481181,0.285968,-0.008784,-0.125904,0.312580666,918,
0.487575,0.292312,-0.003904,-0.134444,0.321771247,919,
0.49453,0.2989,-0.00122,-0.139324,0.329778525,920,
0.50187,0.321104,-0.000732,-0.144692,0.352198935,921,
0.50942,0.325496,-0.00122,-0.15372,0.359970794,922,
0.51581,0.330132,0.008296,-0.169092,0.371009522,923,
0.522674,0.3294,0.013176,-0.182268,0.376695621,924,
0.529006,0.335744,0.020008,-0.196908,0.389739803,925,
0.535797,0.335744,0.002196,-0.205936,0.39387624,926,
0.542923,0.33916,0.002928,-0.2135,0.400774661,927,
0.549652,0.366976,0.000976,-0.223992,0.429935755,928,
0.558147,0.385764,-0.01464,-0.231068,0.449911785,929,
0.564558,0.427488,-0.040748,-0.225944,0.4852392,930,
0.572103,0.4697,-0.11834,-0.178852,0.516343378,931,
0.579085,0.468968,-0.08052,-0.132004,0.493801085,932,
0.585585,0.447252,-0.120048,-0.08784,0.471340365,933,
0.592495,0.371612,-0.148596,0.075884,0.407350747,934,
0.600245,0.41846,-0.144204,-0.027816,0.44348314,935,
0.607304,0.415288,-0.146644,-0.058316,0.444262694,936,
0.614757,0.411872,-0.138836,-0.094672,0.444833415,937,
0.621248,0.387472,-0.057828,-0.184952,0.433227274,938,
0.628327,0.414312,-0.041968,-0.181536,0.454280822,939,
0.64074,0.412116,-0.013908,-0.281576,0.499317608,940,
0.64781,0.38674,-0.00122,-0.28792,0.482148569,941,
0.654206,0.367464,0.005124,-0.31598,0.484664221,942,
0.661422,0.362584,0.008784,-0.330132,0.490440061,943,
0.66885,0.351848,0.002928,-0.333304,0.484661887,944,
0.675734,0.328668,0.01098,-0.316956,0.45673222,945,
0.682556,0.284016,0.009272,-0.2928,0.408023159,946,
0.688901,0.244244,0.011712,-0.262056,0.358421051,947,
0.696356,0.20618,-0.061488,-0.233996,0.317875911,948,
0.70348,0.177144,-0.020008,-0.203008,0.270171362,949,
0.711024,0.144936,-0.03294,-0.180804,0.234054639,950,
0.717888,0.122732,-0.041968,-0.140788,0.191430713,951,
0.72478,0.11224,-0.054656,-0.11956,0.172857425,952,
0.731575,0.099064,-0.070272,-0.100528,0.157663277,953,
0.737974,0.08052,-0.0854,-0.091012,0.148525468,954,
0.744994,0.000732,-0.114924,-0.088816,0.145245804,955,
0.752468,0.067588,-0.117364,-0.097844,0.167080503,956,
0.760027,0.072468,-0.119316,-0.116632,0.181909159,957,
0.766439,0.090768,-0.07808,-0.12688,0.174453004,958,
0.773387,0.184708,-0.09028,-0.15494,0.25743723,959,
0.780588,0.17202,-0.17202,-0.194712,0.311599942,960,
0.787664,0.195444,-0.066612,-0.22692,0.306803198,961,
0.795057,0.236192,-0.124684,-0.24034,0.359299424,962,
0.801601,0.290116,-0.1342,-0.22936,0.393424635,963,
0.808684,0.302072,-0.12932,-0.225212,0.398361143,964,
0.815487,0.322812,-0.113704,-0.214232,0.403771639,965,
0.822194,0.346724,-0.091256,-0.22814,0.424962409,966,
0.829466,0.368196,-0.104432,-0.243756,0.453752493,967,
0.835866,0.392596,-0.080764,-0.253272,0.474131995,968,
0.843387,0.422364,-0.026108,-0.243756,0.488354342,969,
0.849863,0.457012,-0.00732,-0.214232,0.504785995,970,
0.857878,0.45384,0.008296,-0.202276,0.496945821,971,
0.864283,0.409432,0.01952,-0.199104,0.455695069,972,
0.871713,0.356972,-0.021472,-0.205692,0.412552123,973,
0.879338,0.304756,-0.015372,-0.22082,0.376661639,974,
0.885749,0.270108,-0.057096,-0.217404,0.351401173,975,
0.892657,0.238144,-0.006344,-0.211792,0.318761137,976,
0.899613,0.20496,-0.018056,-0.203252,0.289216176,977,
0.907439,0.165676,-0.0366,-0.183732,0.250091073,978,
0.914527,0.140544,-0.06222,-0.16836,0.227967177,979,
0.922157,0.133956,-0.062708,-0.150548,0.21104787,980,
0.92854,0.139324,-0.062708,-0.133224,0.202711875,981,
0.936003,0.128588,-0.071736,-0.121756,0.191063997,982,
0.942478,0.139812,-0.08296,-0.110776,0.196725898,983,
0.949699,0.143716,-0.098576,-0.094916,0.198445367,984,
0.956908,0.151768,-0.092232,-0.080032,0.194795761,985,
0.964503,0.179096,-0.093696,-0.07564,0.215814103,986,
0.970948,0.19398,-0.091012,-0.07808,0.22805243,987,
0.978151,0.219356,-0.091744,-0.077836,0.25018485,988,
0.985571,0.235704,-0.094672,-0.083204,0.267286492,989,
0.992638,0.236924,-0.068076,-0.097844,0.265218348,990,
0.999028,0.293044,-0.128344,-0.0915,0.332744975,991,
0.00611,0.315492,-0.091256,-0.102968,0.344187839,992,
0.013164,0.308172,-0.096868,-0.095648,0.336900476,993,
0.02101,0.316712,-0.09272,-0.108824,0.347485471,994,
0.027854,0.316224,-0.085644,-0.117608,0.348086418,995,
0.034866,0.309636,-0.07198,-0.12078,0.34006379,996,
0.041366,0.299632,-0.076372,-0.121512,0.332230619,997,
0.048172,0.291092,-0.074664,-0.121268,0.324060478,998,
0.054573,0.281332,-0.073444,-0.129076,0.318123135,999,
0.061697,0.274012,-0.077592,-0.134688,0.315030081,1000,
0.068482,0.270596,-0.072224,-0.141032,0.313573797,1001,
0.074895,0.271572,-0.066856,-0.15494,0.319730323,1002,
0.08206,0.270596,-0.036112,-0.167628,0.320352022,1003,
0.089934,0.284748,-0.005368,-0.175924,0.334752883,1004,
0.097047,0.287676,0.001708,-0.176656,0.337591085,1005,
0.103831,0.292312,0.021228,-0.1769,0.342331043,1006,
0.110312,0.285724,0.002928,-0.167384,0.331155826,1007,
0.117178,0.292068,-0.02074,-0.171288,0.339224768,1008,
0.125361,0.2867,-0.08174,-0.190808,0.353957639,1009,
0.131877,0.300608,-0.183732,-0.20374,0.406979858,1010,
0.138659,0.308904,-0.12932,-0.209352,0.394934936,1011,
0.145789,0.314272,-0.109556,-0.210084,0.393579337,1012,
0.152978,0.326716,-0.105652,-0.205692,0.400268521,1013,
0.159619,0.339404,-0.106872,-0.197396,0.406917535,1014,
0.167083,0.344772,-0.096136,-0.19276,0.406529556,1015,
0.173478,0.343064,-0.056364,-0.188368,0.395414102,1016,
0.180346,0.337208,-0.023424,-0.180072,0.382993269,1017,
0.186757,0.348676,-0.020252,-0.183244,0.394415339,1018,
0.193842,0.375028,-0.021472,-0.197884,0.424576407,1019,
0.201255,0.31354,0.009272,-0.228384,0.388011022,1020,
0.208197,0.381372,0.035868,-0.256444,0.46097141,1021,
0.215014,0.384544,0.0305,-0.278404,0.475723791,1022,
0.221551,0.395036,-0.001952,-0.277428,0.482725125,1023,
0.228913,0.376736,-0.064904,-0.264496,0.4648663,1024,
0.235301,0.354288,-0.105164,-0.257908,0.450661725,1025,
0.242228,0.35014,-0.118096,-0.25254,0.447572493,1026,
0.249314,0.345504,-0.12932,-0.24888,0.445014529,1027,
0.256475,0.34648,-0.128588,-0.254248,0.448581441,1028,
0.263262,0.344772,-0.116388,-0.2623,0.44857016,1029,
0.269752,0.351604,-0.105408,-0.257908,0.448612033,1030,
0.276577,0.346236,-0.091012,-0.24766,0.435313712,1031,
0.283571,0.32818,-0.071004,-0.217648,0.40014289,1032,
0.290078,0.30134,-0.06832,-0.193736,0.364701324,1033,
0.296901,0.2562,-0.074664,-0.17324,0.318159159,1034,
0.302685,0.238876,-0.066124,-0.163724,0.297051637,1035,
0.308443,0.22082,-0.002684,-0.153476,0.268930398,1036,
0.314186,0.19764,-0.059536,-0.149328,0.254764512,1037,
0.32007,0.175436,-0.061488,-0.139324,0.232313885,1038,
0.325831,0.151036,-0.06344,-0.134688,0.212078675,1039,
0.331975,0.127856,-0.06588,-0.124684,0.19035081,1040,
0.337807,0.116144,-0.061976,-0.122976,0.180148688,1041,
0.343636,0.094916,-0.058316,-0.125172,0.167564413,1042,
0.349556,0.076372,-0.049776,-0.1281,0.157225769,1043,
0.355386,0.077104,-0.039284,-0.128832,0.155196468,1044,
0.361322,0.073932,-0.022204,-0.12444,0.146438628,1045,
0.367205,0.077348,-0.010736,-0.13298,0.154213019,1046,
0.373005,0.065636,0.014396,-0.139324,0.154681952,1047,
0.378792,0.076616,0.030744,-0.149572,0.170841998,1048,
0.384596,0.083448,0.037088,-0.174216,0.196698508,1049,
0.390406,0.1037,0.037576,-0.19276,0.222085712,1050,
0.396462,0.122488,0.040016,-0.216428,0.251884238,1051,
0.403168,0.155428,0.0305,-0.237412,0.285398968,1052,
0.410037,0.195444,0.025132,-0.266204,0.331201667,1053,
0.416221,0.215452,0.051484,-0.27816,0.355588459,1054,
0.421985,0.236436,0.055876,-0.294264,0.381595874,1055,
0.427789,0.283528,0.037088,-0.305,0.418077321,1056,
0.434511,0.317444,0.03782,-0.305732,0.442349524,1057,
0.44217,0.3843,0.02806,-0.312808,0.496309076,1058,
0.450286,0.422608,0.014884,-0.314028,0.526718748,1059,
0.457248,0.418216,-0.057828,-0.320372,0.529987659,1060,
0.465521,0.40992,-0.021716,-0.309392,0.51403249,1061,
0.473647,0.404796,-0.027816,-0.258152,0.48091162,1062,
0.480896,0.406992,-0.03538,-0.212524,0.46050047,1063,
0.487287,0.400892,-0.034892,-0.182024,0.441661164,1064,
0.494119,0.40626,-0.0427,-0.173972,0.444000827,1065,
0.501244,0.321348,-0.054412,-0.166408,0.365946479,1066,
0.50802,0.331108,-0.050752,-0.164456,0.373167588,1067,
0.514408,0.306708,-0.020008,-0.184708,0.358590522,1068,
0.52128,0.274988,-0.025864,-0.172752,0.325776918,1069,
0.528999,0.252052,-0.002196,-0.17324,0.305854754,1070,
0.535879,0.2379,-0.017568,-0.150548,0.282081096,1071,
0.542003,0.181048,0.01464,-0.157136,0.240175832,1072,
0.548308,0.13908,0.020984,-0.169824,0.220507972,1073,
0.554119,0.11712,0.031232,-0.168604,0.207653175,1074,
0.559931,0.126636,0.038796,-0.164212,0.210967739,1075,
0.567301,0.133956,0.045628,-0.159332,0.213102817,1076,
0.575055,0.146888,0.037576,-0.1586,0.219412854,1077,
0.582622,0.126636,0.037576,-0.159088,0.206779167,1078,
0.588954,0.138836,0.032208,-0.159088,0.213592561,1079,
0.595732,0.150548,0.029768,-0.159332,0.221218264,1080,
0.603623,0.161528,0.01952,-0.15616,0.225517784,1081,
0.610353,0.175436,0.010004,-0.155672,0.234758688,1082,
0.617387,0.205204,0.008052,-0.153964,0.256667936,1083,
0.624265,0.232532,-0.002684,-0.156892,0.280523501,1084,
0.630718,0.236192,-0.012688,-0.15616,0.283431812,1085,
0.637504,0.238632,-0.016348,-0.151524,0.283146625,1086,
0.643889,0.254492,-0.02074,-0.150548,0.296413606,1087,
0.650775,0.27084,-0.033428,-0.147376,0.31014742,1088,
0.657233,0.28182,-0.032696,-0.146156,0.319144352,1089,
0.663029,0.292312,-0.028304,-0.143228,0.326744062,1090,
0.668838,0.295728,-0.037088,-0.13908,0.328897881,1091,
0.674668,0.289384,-0.026352,-0.141276,0.323104373,1092,
0.680527,0.28914,-0.025132,-0.142984,0.323539768,1093,
0.686417,0.291336,-0.014396,-0.144448,0.325498286,1094,
0.692259,0.290116,-0.007564,-0.14884,0.326156179,1095,
0.698566,0.280112,0.051728,-0.157624,0.325551599,1096,
0.705201,0.272304,0.057828,-0.163236,0.322706581,1097,
0.712933,0.280356,-0.038552,-0.16592,0.328047542,1098,
0.719649,0.27328,0.015128,-0.1769,0.325890204,1099,
0.726164,0.279136,0.024888,-0.183488,0.334968902,1100,
0.732957,0.277672,0.027084,-0.180804,0.332453559,1101,
0.740085,0.278648,0.02806,-0.182512,0.334279377,1102,
0.747208,0.277428,0.016836,-0.177632,0.329852806,1103,
0.754006,0.28182,0.015128,-0.172264,0.330645209,1104,
0.760474,0.284016,0.00122,-0.16714,0.329548716,1105,
0.767265,0.297436,-0.001952,-0.153964,0.334928198,1106,
0.773969,0.307684,-0.011468,-0.147376,0.341351204,1107,
0.780786,0.31354,-0.022448,-0.142008,0.344931176,1108,
0.786693,0.325496,-0.018544,-0.13908,0.354449957,1109,
0.792432,0.3355,-0.016592,-0.143716,0.365362605,1110,
0.79886,0.347944,-0.016836,-0.148352,0.378624872,1111,
0.805605,0.356972,-0.020008,-0.14762,0.38680873,1112,
0.812109,0.365024,-0.02074,-0.148352,0.394564297,1113,
0.818661,0.379908,-0.02074,-0.148108,0.408284479,1114,
0.825362,0.388692,-0.02562,-0.144204,0.415370496,1115,
0.834141,0.389912,-0.024644,-0.139812,0.414953118,1116,
0.840843,0.402356,-0.023668,-0.134688,0.424960448,1117,
0.84791,0.396988,-0.01952,-0.133712,0.419355937,1118,
0.855245,0.384544,0.06222,-0.133468,0.411775574,1119,
0.861762,0.384544,0.014884,-0.137128,0.408533609,1120,
0.868536,0.381372,0.034892,-0.151524,0.411851401,1121,
0.874944,0.371124,0.027572,-0.166652,0.407757437,1122,
0.88083,0.370148,0.022448,-0.186172,0.414937909,1123,
0.886578,0.371368,0.006832,-0.198616,0.421199695,1124,
0.892393,0.37576,0.016592,-0.21838,0.434926082,1125,
0.898176,0.36722,0.01098,-0.227896,0.432328204,1126,
0.903911,0.364536,0.024644,-0.23546,0.434666808,1127,
0.910023,0.352092,0.03904,-0.23424,0.424689623,1128,
0.915836,0.33306,0.055144,-0.238388,0.413277949,1129,
0.921763,0.321592,0.063928,-0.243024,0.408128495,1130,
0.927572,0.305488,0.06954,-0.243024,0.396509009,1131,
0.933387,0.284748,0.067588,-0.239852,0.378389407,1132,
0.93927,0.26718,0.061,-0.23546,0.361313664,1133,
0.945088,0.242536,0.052704,-0.2318,0.33960663,1134,
0.95104,0.216672,0.044652,-0.225944,0.316213927,1135,
0.957628,0.18788,0.028304,-0.216916,0.288361859,1136,
0.963451,0.165432,0.012444,-0.213012,0.269993911,1137,
0.9699,0.152988,-0.001464,-0.201544,0.25303647,1138,
0.975728,0.137372,-0.022204,-0.195444,0.23992174,1139,
0.982386,0.123952,-0.04026,-0.184464,0.225858215,1140,
0.988566,0.112728,-0.059292,-0.174948,0.216402278,1141,
0.99509,0.110532,-0.071004,-0.163968,0.210105678,1142,
0.000999,0.117852,-0.083692,-0.14762,0.206603749,1143,
0.006792,0.125172,-0.103456,-0.14274,0.216207958,1144,
0.012615,0.144936,-0.114924,-0.14884,0.237418018,1145,
0.018407,0.17446,-0.09882,-0.163236,0.258549175,1146,
0.024669,0.191052,-0.088084,-0.178852,0.276129853,1147,
0.031186,0.222284,-0.099796,-0.195932,0.312663984,1148,
0.038831,0.242048,-0.108336,-0.21472,0.341216356,1149,
0.04656,0.268888,-0.089792,-0.218624,0.357994152,1150,
0.053709,0.297924,-0.105408,-0.226432,0.388768578,1151,
0.061298,0.325252,-0.09028,-0.22204,0.404031067,1152,
0.068421,0.329888,-0.068076,-0.221552,0.403169596,1153,
0.075134,0.335988,-0.045384,-0.22814,0.408650833,1154,
0.081574,0.330376,-0.043188,-0.246196,0.414277655,1155,
0.088911,0.349896,-0.027328,-0.256444,0.434669478,1156,
0.09596,0.369172,0,-0.255956,0.449223151,1157,
0.102829,0.350628,0.000244,-0.249124,0.430119543,1158,
0.109219,0.252784,-0.01464,-0.240096,0.348941499,1159,
0.116234,0.271816,-0.016348,-0.23668,0.360788882,1160,
0.122335,0.259616,-0.009028,-0.23912,0.353072721,1161,
0.128188,0.242292,-0.017324,-0.24156,0.342573741,1162,
0.13392,0.23302,-0.022448,-0.249124,0.341855233,1163,
0.145763,0.226676,-0.05856,-0.254004,0.345440754,1164,
0.152408,0.209108,-0.074176,-0.249856,0.334150049,1165,
0.158186,0.208376,-0.067832,-0.239364,0.324525595,1166,
0.174087,0.190808,-0.089304,-0.204716,0.293754213,1167,
0.183809,0.187392,-0.110776,-0.172508,0.277751857,1168,
0.192875,0.203984,-0.120048,-0.145424,0.27779333,1169,
0.200508,0.222528,-0.100284,-0.131272,0.277142435,1170,
0.210038,0.252784,-0.106384,-0.112972,0.296614192,1171,
0.217756,0.25986,-0.094672,-0.102724,0.295029197,1172,
0.226204,0.260348,-0.094916,-0.109312,0.297891325,1173,
0.245177,0.255956,-0.101992,-0.102724,0.294054522,1174,
0.251763,0.232532,-0.105652,-0.103212,0.275474487,1175,
0.258512,0.223992,-0.106628,-0.106872,0.270117698,1176,
0.264894,0.228628,-0.109556,-0.115168,0.27845457,1177,
0.271791,0.234972,-0.107604,-0.117852,0.284041468,1178,
0.278858,0.232044,-0.11468,-0.112484,0.282220783,1179,
0.285359,0.232776,-0.130784,-0.107604,0.287867577,1180,
0.292278,0.2379,-0.126636,-0.103456,0.288680152,1181,
0.299331,0.243024,-0.13054,-0.097356,0.292539821,1182,
0.306696,0.252784,-0.13176,-0.099064,0.301784897,1183,
0.313108,0.248148,-0.134444,-0.099064,0.299109169,1184,
0.319981,0.256444,-0.132492,-0.094916,0.303853093,1185,
0.327048,0.267668,-0.127612,-0.093208,0.310835506,1186,
0.333439,0.281576,-0.096624,-0.101992,0.31468017,1187,
0.341025,0.32818,-0.102236,-0.1159,0.362749393,1188,
0.349209,0.306952,-0.099308,-0.119804,0.344143295,1189,
0.356705,0.313296,-0.077836,-0.123464,0.345624342,1190,
0.363364,0.324032,-0.068076,-0.132004,0.356449344,1191,
0.370246,0.330132,-0.070516,-0.134688,0.363456326,1192,
0.376699,0.327692,-0.09882,-0.13908,0.369446458,1193,
0.383803,0.32452,-0.114924,-0.14884,0.375065463,1194,
0.39156,0.339892,-0.113948,-0.169092,0.396361985,1195,
0.398522,0.3477,-0.108092,-0.184708,0.408284479,1196,
0.40491,0.338672,-0.095648,-0.18788,0.39893127,1197,
0.41211,0.333792,-0.084912,-0.188124,0.392450999,1198,
0.419426,0.330864,-0.074176,-0.186904,0.387177183,1199,
0.426171,0.323544,-0.060268,-0.186172,0.378117661,1200,
0.432556,0.322812,-0.049776,-0.186172,0.375959108,1201,
0.439529,0.33306,-0.046604,-0.187636,0.385107991,1202,
0.446294,0.353312,-0.055144,-0.175192,0.398199029,1203,
0.453911,0.366488,-0.030012,-0.172508,0.406168911,1204,
0.460832,0.366,-0.01586,-0.172264,0.404823944,1205,
0.467583,0.366244,-0.005368,-0.169336,0.40353211,1206,
0.473974,0.35624,-0.001952,-0.172752,0.395921711,1207,
0.481137,0.343796,-0.005124,-0.180316,0.388247093,1208,
0.488166,0.337696,-0.014884,-0.188612,0.387084756,1209,
0.49454,0.329644,-0.012932,-0.201788,0.386717985,1210,
0.502246,0.307684,-0.02806,-0.226188,0.382907063,1211,
0.509221,0.286944,-0.036112,-0.236436,0.373554438,1212,
0.516379,0.313296,-0.053192,-0.238144,0.397109981,1213,
0.523164,0.334524,-0.078812,-0.2379,0.417988095,1214,
0.530759,0.340136,-0.086132,-0.231312,0.420257613,1215,
0.537201,0.353312,-0.10126,-0.227652,0.43232903,1216,
0.543987,0.365268,-0.127368,-0.230092,0.450095154,1217,
0.551623,0.359168,-0.144692,-0.224968,0.44782589,1218,
0.559603,0.348676,-0.14518,-0.204228,0.429373103,1219,
0.566214,0.326472,-0.127368,-0.178608,0.393328605,1220,
0.573955,0.297924,-0.115168,-0.152988,0.354157742,1221,
0.580424,0.258152,-0.110776,-0.142496,0.314990297,1222,
0.587558,0.218868,-0.092232,-0.139324,0.275356351,1223,
0.594714,0.18422,-0.09882,-0.14152,0.252448631,1224,
0.602678,0.144204,-0.07076,-0.142496,0.214725129,1225,
0.609623,0.134444,-0.068076,-0.142496,0.207399713,1226,
0.616703,0.117364,-0.068076,-0.138836,0.194123891,1227,
0.623125,0.101748,-0.077348,-0.136152,0.186742431,1228,
0.630335,0.087596,-0.081008,-0.138348,0.182689694,1229,
0.63739,0.087108,-0.074908,-0.142496,0.183041313,1230,
0.645124,0.094184,-0.033916,-0.144936,0.176145863,1231,
0.651632,0.092232,-0.020984,-0.15616,0.182573316,1232,
0.658661,0.101748,-0.005856,-0.167384,0.195970283,1233,
0.665973,0.11712,0.016348,-0.181536,0.21665565,1234,
0.672439,0.1342,0.01586,-0.206668,0.246926794,1235,
0.679643,0.160064,0.016592,-0.220576,0.273037635,1236,
0.68675,0.197396,0.031964,-0.310612,0.369413985,1237,
0.693828,0.274012,0.02196,-0.263764,0.380967539,1238,
0.701585,0.343064,0.006588,-0.271816,0.4377445,1239,
0.707965,0.402356,-0.009272,-0.276452,0.488264302,1240,
0.715298,0.420168,-0.033184,-0.29036,0.511811739,1241,
0.72182,0.390156,-0.041968,-0.31842,0.505345737,1242,
0.728656,0.353556,-0.038796,-0.33184,0.486440911,1243,
0.735046,0.36356,-0.074908,-0.316956,0.488106738,1244,
0.742356,0.377224,-0.0915,-0.289384,0.484162468,1245,
0.7493,0.39162,-0.081008,-0.237168,0.464948579,1246,
0.75716,0.402356,-0.060512,-0.185196,0.447045424,1247,
0.764917,0.42456,-0.066124,-0.162016,0.459208843,1248,
0.772665,0.382104,-0.071248,-0.156892,0.419159688,1249,
0.780329,0.338916,-0.062708,-0.171288,0.384884304,1250,
0.787027,0.307928,-0.0427,-0.172996,0.355767563,1251,
0.793427,0.261568,-0.035136,-0.125904,0.292410968,1252,
0.800282,0.234728,-0.036112,-0.177388,0.296425055,1253,
0.80797,0.214476,-0.023424,-0.17324,0.276696108,1254,
0.814349,0.179096,0.059292,-0.175436,0.25762125,1255,
0.821209,0.153232,0.013176,-0.172264,0.230929726,1256,
0.827575,0.14274,0.018788,-0.1647,0.218755083,1257,
0.835053,0.128344,0.029036,-0.157868,0.205517827,1258,
0.84157,0.129808,0.021716,-0.150304,0.199782366,1259,
0.848764,0.138348,0.020984,-0.142252,0.199539793,1260,
0.856115,0.143228,0.023912,-0.14152,0.202765762,1261,
0.862507,0.151036,0.034404,-0.130784,0.202731258,1262,
0.870327,0.153232,0.030012,-0.12444,0.199664918,1263,
0.876739,0.153964,0.015372,-0.125904,0.199481901,1264,
0.883517,0.189588,0.0305,-0.128344,0.230967621,1265,
0.88999,0.214476,0.018544,-0.132248,0.252652663,1266,
0.896814,0.237412,0.001708,-0.134932,0.273082441,1267,
0.903208,0.2623,0.006832,-0.133224,0.294273003,1268,
0.910295,0.273036,-0.000732,-0.136396,0.305209865,1269,
0.916733,0.285236,-0.00366,-0.140788,0.318110409,1270,
0.923543,0.293044,-0.000488,-0.148352,0.328455994,1271,
0.930026,0.318664,-0.031964,-0.13786,0.348674378,1272,
0.93685,0.30866,-0.007076,-0.141764,0.33973239,1273,
0.94323,0.306952,-0.000244,-0.135908,0.335694168,1274,
0.950119,0.2989,0.017324,-0.144936,0.332637603,1275,
0.957967,0.286212,0.013176,-0.1342,0.316386719,1276,
0.96494,0.27572,0.03416,-0.148596,0.315070143,1277,
0.971454,0.26718,0.035136,-0.16104,0.313932433,1278,
0.978248,0.260104,0.03538,-0.1647,0.309890183,1279,
0.984648,0.256444,0.034892,-0.164944,0.306899821,1280,
0.991539,0.247904,0.030256,-0.169824,0.302013261,1281,
0.998486,0.249856,0.026352,-0.17324,0.305179531,1282,
0.004872,0.25986,0.01342,-0.170068,0.310854372,1283,
0.011867,0.26108,0.00732,-0.173728,0.313684183,1284,
0.018225,0.277184,-0.005368,-0.17324,0.326912653,1285,
0.025022,0.29402,-0.020496,-0.173728,0.342124633,1286,
0.032463,0.30378,-0.034892,-0.176412,0.353016903,1287,
0.039936,0.316956,-0.045628,-0.178852,0.366784757,1288,
0.046363,0.337208,-0.057096,-0.18056,0.386744233,1289,
0.053155,0.354288,-0.068076,-0.182268,0.404197913,1290,
0.060831,0.361852,-0.083692,-0.183732,0.414365381,1291,
0.067238,0.367952,-0.098332,-0.179584,0.421079885,1292,
0.07562,0.370392,-0.107604,-0.15982,0.417506032,1293,
0.083699,0.370636,-0.115168,-0.13664,0.411467134,1294,
0.090182,0.37088,-0.114436,-0.10858,0.403034972,1295,
0.097517,0.360144,-0.112972,-0.078812,0.38558748,1296,
0.103887,0.350384,-0.106384,-0.067832,0.372407953,1297,
0.111612,0.34892,-0.073688,-0.069296,0.363286421,1298,
0.118612,0.35258,-0.030988,-0.074908,0.361779105,1299,
0.125266,0.35868,-0.00122,-0.086132,0.368878777,1300,
0.133011,0.353556,0.030988,-0.119072,0.374353099,1301,
0.139732,0.345016,0.034892,-0.14884,0.377368305,1302,
0.146188,0.337208,0.051484,-0.169824,0.381051215,1303,
0.153068,0.334524,0.061976,-0.195688,0.392480731,1304,
0.160929,0.339892,0.056852,-0.225456,0.411812007,1305,
0.168578,0.348432,0.0488,-0.241804,0.426913894,1306,
0.175663,0.360144,0.046604,-0.250588,0.44121421,1307,
0.183476,0.358436,0.037088,-0.188612,0.40672641,1308,
0.190186,0.367952,0.03294,-0.241804,0.441523377,1309,
0.196578,0.370148,0.03294,-0.240096,0.442425897,1310,
0.203631,0.36112,0.036356,-0.232288,0.430914293,1311,
0.211169,0.341356,0.04392,-0.225212,0.411306856,1312,
0.217942,0.31232,0.055876,-0.218624,0.385308141,1313,
0.224325,0.280112,0.067344,-0.211548,0.357422024,1314,
0.23173,0.189588,0.069296,-0.206668,0.288889611,1315,
0.23894,0.228628,0.061976,-0.208132,0.315326365,1316,
0.245929,0.195932,0.053924,-0.208132,0.290888425,1317,
0.252402,0.170312,0.043432,-0.206424,0.271115075,1318,
0.259724,0.14518,0.024156,-0.20252,0.250349945,1319,
0.266182,0.124196,-0.000488,-0.201544,0.236737974,1320,
0.272992,0.112484,-0.013664,-0.195688,0.226126399,1321,
0.279916,0.097356,-0.030744,-0.184464,0.21083252,1322,
0.287486,0.096136,-0.039772,-0.177876,0.206067498,1323,
0.294624,0.097112,-0.053436,-0.170068,0.203000668,1324,
0.301519,0.106384,-0.067344,-0.16836,0.210232869,1325,
0.309032,0.116876,-0.077592,-0.17324,0.222918405,1326,
0.316182,0.1342,-0.09638,-0.177388,0.242415443,1327,
0.323621,0.2379,-0.100772,-0.1952,0.323812362,1328,
0.330111,0.23546,-0.115412,-0.2074,0.334329331,1329,
0.338076,0.270108,-0.095404,-0.209352,0.354807715,1330,
0.344471,0.3233,-0.083448,-0.219112,0.399370163,1331,
0.351685,0.350384,-0.091988,-0.220332,0.424001096,1332,
0.359265,0.360144,-0.077836,-0.219112,0.428686613,1333,
0.366258,0.361364,-0.000732,-0.227164,0.426834815,1334,
0.373312,0.349652,-0.053192,-0.237168,0.42583397,1335,
0.380209,0.358924,-0.037332,-0.253028,0.440730399,1336,
0.38726,0.390156,-0.025132,-0.255468,0.467030214,1337,
0.39366,0.365756,0.061244,-0.263032,0.454658237,1338,
0.400842,0.331352,-0.000976,-0.270352,0.427650914,1339,
0.407856,0.292068,-0.03538,-0.274988,0.402708159,1340,
0.415113,0.262544,-0.032696,-0.273036,0.380193421,1341,
0.422788,0.245708,-0.050264,-0.26108,0.362024388,1342,
0.42917,0.227652,-0.056364,-0.250832,0.343393398,1343,
0.435963,0.233752,-0.062952,-0.235216,0.33753447,1344,
0.443122,0.219112,-0.083936,-0.219112,0.321037987,1345,
0.451089,0.2135,-0.10126,-0.199836,0.309467712,1346,
0.458486,0.205692,-0.109556,-0.181292,0.295260064,1347,
0.466157,0.204472,-0.105408,-0.163968,0.282498054,1348,
0.472543,0.214232,-0.109312,-0.154452,0.285831915,1349,
0.480296,0.220576,-0.10248,-0.140056,0.280662796,1350,
0.486702,0.244488,-0.107116,-0.063928,0.274472237,1351,
0.493626,0.255224,-0.095404,-0.11346,0.295151461,1352,
0.50081,0.252052,-0.072956,-0.111752,0.285203959,1353,
0.507883,0.248392,-0.066368,-0.114192,0.281323852,1354,
0.515439,0.189588,-0.068564,-0.121024,0.23514132,1355,
0.522421,0.245952,-0.067832,-0.125904,0.284509022,1356,
0.529165,0.24156,-0.062708,-0.130296,0.281532546,1357,
0.535895,0.242048,-0.061732,-0.13664,0.284725418,1358,
0.542803,0.247904,-0.048312,-0.138836,0.288211515,1359,
0.549182,0.25498,-0.051972,-0.139568,0.295288191,1360,
0.556545,0.262544,-0.068564,-0.139568,0.305138658,1361,
0.563472,0.261812,-0.079056,-0.146156,0.310091843,1362,
0.570331,0.258884,-0.093208,-0.14884,0.31282903,1363,
0.577307,0.255468,-0.10126,-0.150304,0.31322321,1364,
0.58433,0.25742,-0.120048,-0.152744,0.322501641,1365,
0.591097,0.26352,-0.13298,-0.152012,0.332015239,1366,
0.597495,0.26474,-0.129564,-0.149572,0.330523646,1367,
0.604287,0.27938,-0.131028,-0.1464,0.341547187,1368,
0.610738,0.281576,-0.128832,-0.15006,0.344094074,1369,
0.618516,0.304024,-0.133956,-0.146644,0.363151849,1370,
0.626232,0.307928,-0.120292,-0.146644,0.36165492,1371,
0.632608,0.305,-0.11102,-0.142008,0.354283379,1372,
0.644782,0.321836,-0.096624,-0.132492,0.361204566,1373,
0.651304,0.325008,-0.087108,-0.130784,0.36100202,1374,
0.658973,0.330864,-0.076372,-0.13298,0.364674306,1375,
0.665355,0.341112,-0.067588,-0.137128,0.373804257,1376,
0.673115,0.333548,-0.058072,-0.141276,0.366859011,1377,
0.680071,0.3233,-0.058804,-0.142984,0.358364653,1378,
0.686883,0.311588,-0.06832,-0.142008,0.349171843,1379,
0.693256,0.304268,-0.089548,-0.139812,0.346619756,1380,
0.700644,0.296948,-0.111752,-0.1464,0.349427509,1381,
0.707037,0.293776,-0.130052,-0.152256,0.355527426,1382,
0.714337,0.2928,-0.13908,-0.155184,0.359384418,1383,
0.722185,0.29036,-0.144448,-0.155184,0.359522222,1384,
0.728995,0.287676,-0.147864,-0.149816,0.35646329,1385,
0.735371,0.284748,-0.124928,-0.154452,0.347194253,1386,
0.742922,0.27816,-0.098332,-0.14884,0.330447444,1387,
0.749314,0.291092,-0.087108,-0.13908,0.334164035,1388,
0.756186,0.297436,-0.072712,-0.137128,0.33549858,1389,
0.762571,0.29402,-0.066368,-0.147864,0.335732385,1390,
0.770842,0.289384,-0.058316,-0.162748,0.33709163,1391,
0.778325,0.2867,-0.041724,-0.177876,0.339967136,1392,
0.784706,0.292556,-0.031232,-0.198616,0.354982769,1393,
0.791909,0.308416,-0.017568,-0.225944,0.382726736,1394,
0.799194,0.325984,0.000244,-0.24278,0.40645757,1395,
0.806121,0.339404,0.017812,-0.250344,0.422119013,1396,
0.813125,0.350384,0.01708,-0.24522,0.428011124,1397,
0.8196,0.345016,0.003172,-0.236436,0.418267957,1398,
0.827326,0.328912,-0.061976,-0.221308,0.401249747,1399,
0.833721,0.322324,-0.109312,-0.207644,0.398695253,1400,
0.84121,0.304512,-0.132004,-0.20252,0.388801961,1401,
0.847676,0.295972,-0.138836,-0.192028,0.379143261,1402,
0.855451,0.2867,-0.148352,-0.185684,0.372402677,1403,
0.863337,0.2745,-0.125416,-0.183976,0.35344956,1404,
0.869808,0.271084,-0.128344,-0.179584,0.349584225,1405,
0.876911,0.2623,-0.11102,-0.170068,0.33173763,1406,
0.883969,0.247904,-0.101016,-0.165188,0.314559535,1407,
0.891583,0.23912,-0.086864,-0.164456,0.302934819,1408,
0.897968,0.233264,-0.073932,-0.158844,0.291735241,1409,
0.905605,0.224968,-0.055144,-0.157624,0.280172781,1410,
0.912511,0.21716,-0.045628,-0.158112,0.272469786,1411,
0.918851,0.212036,-0.035868,-0.161528,0.268955523,1412,
0.92598,0.201056,-0.024888,-0.160552,0.258495401,1413,
0.93314,0.195688,-0.018788,-0.160308,0.253664024,1414,
0.939984,0.17568,-0.020252,-0.170068,0.24535022,1415,
0.94639,0.166164,-0.004636,-0.17324,0.240091785,1416,
0.954216,0.160796,-0.005368,-0.173972,0.236960811,1417,
0.961246,0.155428,-0.003904,-0.18056,0.238275089,1418,
0.96831,0.147132,-0.001464,-0.249856,0.289962048,1419,
0.975607,0.146888,-0.00244,-0.195444,0.244500297,1420,
0.982128,0.14762,-0.001464,-0.203496,0.251404912,1421,
0.989777,0.153476,0.00488,-0.20862,0.25903861,1422,
0.99688,0.160552,0.0122,-0.21838,0.271321966,1423,
0.005587,0.1708,0.02562,-0.2318,0.289067924,1424,
0.012102,0.195444,0.028792,-0.244488,0.314327407,1425,
0.01916,0.21228,0.03172,-0.259128,0.336476265,1426,
0.026249,0.234728,0.03904,-0.26718,0.357779971,1427,
0.033389,0.254492,0.030012,-0.275476,0.376236528,1428,
0.040501,0.278404,0.028792,-0.278404,0.394774054,1429,
0.047665,0.300852,0.018056,-0.27938,0.41096366,1430,
0.055293,0.312808,0.013908,-0.280112,0.420124993,1431,
0.061797,0.328668,-0.001708,-0.281576,0.432793964,1432,
0.069333,0.335012,-0.029524,-0.274988,0.434422728,1433,
0.075724,0.343796,-0.045872,-0.258884,0.432805794,1434,
0.082925,0.360876,-0.060268,-0.237412,0.436151553,1435,
0.090747,0.382104,-0.061244,-0.221308,0.445793142,1436,
0.097513,0.386252,-0.067344,-0.199592,0.439957712,1437,
0.103902,0.377712,-0.073444,-0.186416,0.427564382,1438,
0.111626,0.366488,-0.073444,-0.182756,0.416061571,1439,
0.11804,0.353312,-0.071248,-0.186172,0.405666933,1440,
0.125066,0.341356,-0.0671,-0.183244,0.393198032,1441,
0.132518,0.29036,-0.041236,-0.183976,0.346202984,1442,
0.138863,0.262056,-0.035868,-0.178364,0.319019713,1443,
0.145882,0.24522,-0.038308,-0.17812,0.305494821,1444,
0.153389,0.216916,-0.017812,-0.179584,0.282170572,1445,
0.160528,0.195444,-0.005124,-0.176412,0.263335919,1446,
0.166953,0.187636,-0.016348,-0.17812,0.259232058,1447,
0.174044,0.181048,-0.00854,-0.203252,0.272328268,1448,
0.181167,0.19154,0.018788,-0.15128,0.244798282,1449,
0.188253,0.15738,0.008784,-0.148108,0.216290552,1450,
0.195044,0.147864,-0.00244,-0.16348,0.220443704,1451,
0.201648,0.151036,0.01464,-0.156648,0.218093555,1452,
0.208919,0.175436,0.01708,-0.156892,0.23597588,1453,
0.215311,0.191784,0.017812,-0.154208,0.246735642,1454,
0.222266,0.212768,0.016104,-0.155916,0.264271375,1455,
0.22944,0.23058,0.015616,-0.156892,0.279331515,1456,
0.236236,0.260104,0.010492,-0.15616,0.30356238,1457,
0.243247,0.282064,0.000488,-0.163968,0.326260392,1458,
0.249726,0.264496,-0.001952,-0.169336,0.314064683,1459,
0.257156,0.285724,-0.0061,-0.169336,0.332189848,1460,
0.263568,0.300364,-0.017324,-0.169824,0.345483494,1461,
0.270892,0.300608,-0.017812,-0.175192,0.348388682,1462,
0.278034,0.289872,-0.017568,-0.174948,0.339029812,1463,
0.284434,0.289628,-0.01586,-0.178364,0.34051378,1464,
0.292173,0.279624,-0.016348,-0.184708,0.335520318,1465,
0.299345,0.265472,-0.020008,-0.191784,0.328110965,1466,
0.306363,0.263764,-0.010736,-0.187636,0.323873398,1467,
0.313196,0.25742,-0.001708,-0.186172,0.317691654,1468,
0.319709,0.249612,0.010248,-0.19276,0.315543325,1469,
0.326924,0.243268,0.012932,-0.192272,0.310346707,1470,
0.33372,0.234728,0.020252,-0.193004,0.304561852,1471,
0.340222,0.228628,0.018056,-0.196908,0.302273952,1472,
0.348899,0.221064,0.01342,-0.19276,0.293608253,1473,
0.355951,0.223016,0.006588,-0.187148,0.291211112,1474,
0.363563,0.23302,-0.001708,-0.1769,0.292565971,1475,
0.371215,0.2501,-0.012444,-0.169824,0.302564132,1476,
0.3783,0.2684,-0.021716,-0.162016,0.31425997,1477,
0.385112,0.281088,-0.033184,-0.155672,0.323025406,1478,
0.39238,0.298168,-0.04758,-0.153232,0.338597192,1479,
0.400148,0.372588,-0.056852,-0.146888,0.404512116,1480,
0.406567,0.330132,-0.058316,-0.145912,0.365620302,1481,
0.414043,0.33916,-0.070272,-0.143472,0.374902486,1482,
0.420986,0.341844,-0.0671,-0.142496,0.3763839,1483,
0.427839,0.35014,-0.061732,-0.144204,0.383671283,1484,
0.434216,0.352336,-0.056608,-0.150304,0.387216238,1485,
0.441875,0.347212,-0.05002,-0.154208,0.383194834,1486,
0.44869,0.343552,-0.045628,-0.156648,0.380326816,1487,
0.455804,0.340624,-0.0366,-0.157136,0.37690316,1488,
0.462607,0.346236,-0.026352,-0.160552,0.382558153,1489,
0.468959,0.352336,-0.017568,-0.15738,0.386287142,1490,
0.476098,0.357704,-0.006588,-0.16104,0.392338419,1491,
0.483188,0.357704,-0.00122,-0.160552,0.39208492,1492,
0.490068,0.351604,0.009516,-0.159088,0.386037458,1493,
0.497053,0.346724,0.016348,-0.161528,0.382852562,1494,
0.504805,0.343552,0.0244,-0.165188,0.381982214,1495,
0.511322,0.335256,0.02562,-0.174948,0.379024765,1496,
0.519015,0.334036,0.015372,-0.187636,0.383436587,1497,
0.525402,0.335744,0.01342,-0.198616,0.390323514,1498,
0.532331,0.337696,0.008296,-0.209108,0.39728273,1499,
0.53933,0.339648,0.011224,-0.212036,0.400557121,1500,
0.545714,0.345992,0.005612,-0.208864,0.404185761,1501,
0.552612,0.341356,0.007808,-0.21228,0.402054327,1502,
0.558939,0.338184,0.008784,-0.20862,0.397451734,1503,
0.566017,0.33184,0.009516,-0.205936,0.390663507,1504,
0.572919,0.325252,0.008784,-0.20252,0.383249752,1505,
0.579332,0.312564,0.01098,-0.20252,0.372600543,1506,
0.586189,0.296216,0.009028,-0.205204,0.360463736,1507,
0.594017,0.259616,0.010492,-0.20618,0.331693747,1508,
0.600878,0.246684,0.007076,-0.20252,0.319245072,1509,
0.607742,0.233508,0.005856,-0.196908,0.305504565,1510,
0.614132,0.2135,0.006344,-0.190564,0.286246632,1511,
0.62199,0.196664,0.004636,-0.18544,0.270344623,1512,
0.629333,0.182024,0.00122,-0.178852,0.25519064,1513,
0.635744,0.169336,-0.001464,-0.17812,0.245771354,1514,
0.642639,0.157624,-0.011956,-0.175924,0.236511152,1515,
0.64978,0.149572,-0.036356,-0.175192,0.233207587,1516,
0.656575,0.145668,-0.051484,-0.174704,0.23321933,1517,
0.663006,0.143716,-0.0671,-0.172996,0.234700479,1518,
0.669888,0.149084,-0.083448,-0.176168,0.245407359,1519,
0.676838,0.15494,-0.098576,-0.181536,0.258222677,1520,
0.684492,0.168848,-0.10614,-0.178608,0.267724045,1521,
0.69208,0.194468,-0.115656,-0.180072,0.289171296,1522,
0.698472,0.220332,-0.124196,-0.183732,0.312615234,1523,
0.705275,0.23912,-0.138348,-0.187148,0.333680862,1524,
0.71179,0.270352,-0.147864,-0.182268,0.358016187,1525,
0.718531,0.297192,-0.152256,-0.182268,0.380429492,1526,
0.724934,0.312076,-0.150304,-0.18422,0.392326051,1527,
0.732258,0.319884,-0.150548,-0.187148,0.400018559,1528,
0.738649,0.340136,-0.140544,-0.182512,0.41079891,1529,
0.745512,0.362584,-0.1281,-0.181292,0.425139455,1530,
0.752024,0.372832,-0.11834,-0.183976,0.432267538,1531,
0.758402,0.377712,-0.0915,-0.187392,0.4314561,1532,
0.764416,0.39284,-0.079056,-0.188124,0.442677937,1533,
0.770235,0.384788,-0.081496,-0.196176,0.439532053,1534,
0.775977,0.360144,-0.04148,-0.205936,0.41693396,1535,
0.781935,0.31842,-0.016348,-0.211548,0.382637047,1536,
0.787743,0.288652,-0.021716,-0.218136,0.362456723,1537,
0.794111,0.26718,-0.023912,-0.221796,0.348066663,1538,
0.801116,0.24766,-0.024156,-0.22692,0.336766498,1539,
0.807545,0.24156,-0.027328,-0.225212,0.331388742,1540,
0.815815,0.220576,-0.026352,-0.223748,0.315295682,1541,
0.823015,0.202276,-0.030744,-0.212036,0.294652404,1542,
0.83012,0.194956,-0.038552,-0.203252,0.284263037,1543,
0.836549,0.189344,-0.037088,-0.197152,0.275854275,1544,
0.843677,0.1891,-0.045628,-0.187392,0.270104584,1545,
0.851231,0.188856,-0.063684,-0.1708,0.262478343,1546,
0.857913,0.195688,-0.074908,-0.15738,0.262056227,1547,
0.864298,0.208132,-0.063196,-0.145912,0.261921697,1548,
0.871182,0.219844,-0.083448,-0.13298,0.270145578,1549,
0.878284,0.218624,-0.082472,-0.124928,0.26496243,1550,
0.885051,0.22448,-0.08174,-0.118828,0.266819774,1551,
0.892587,0.233752,-0.10614,-0.112728,0.280380633,1552,
0.899389,0.260104,-0.108824,-0.102968,0.300165226,1553,
0.905689,0.261568,-0.098576,-0.101992,0.297552373,1554,
0.91269,0.280356,-0.1098,-0.099552,0.317121629,1555,
0.919938,0.28792,-0.103456,-0.105164,0.323512808,1556,
0.926354,0.280112,-0.098576,-0.106384,0.315432268,1557,
0.933502,0.284504,-0.092964,-0.113948,0.320263919,1558,
0.939992,0.281332,-0.089304,-0.115656,0.317016102,1559,
0.947269,0.2806,-0.081252,-0.112484,0.313034978,1560,
0.956358,0.276696,-0.081496,-0.109312,0.308466186,1561,
0.963222,0.272792,-0.082716,-0.111752,0.306179557,1562,
0.969707,0.277184,-0.082716,-0.1159,0.311617901,1563,
0.977046,0.27938,-0.0854,-0.11834,0.315199461,1564,
0.983443,0.276696,-0.08418,-0.116876,0.311940616,1565,
0.990568,0.277672,-0.092232,-0.114924,0.314350135,1566,
0.99842,0.282308,-0.095404,-0.113948,0.319035855,1567,
0.005275,0.282796,-0.090524,-0.113704,0.317957185,1568,
0.012065,0.285968,-0.087596,-0.115168,0.320490912,1569,
0.018767,0.28548,-0.085156,-0.114436,0.319133158,1570,
0.025436,0.288896,-0.079788,-0.119316,0.322588486,1571,
0.032524,0.294752,-0.072712,-0.123464,0.32773333,1572,
0.03887,0.293532,-0.00366,-0.127612,0.32009257,1573,
0.046002,0.300364,-0.060024,-0.129076,0.332388367,1574,
0.053133,0.297436,-0.074176,-0.13176,0.33366293,1575,
0.060693,0.292068,-0.081496,-0.134444,0.331693388,1576,
0.067141,0.292068,-0.084912,-0.146644,0.337665851,1577,
0.074639,0.305976,-0.096136,-0.16104,0.358883442,1578,
0.081766,0.31842,-0.106628,-0.17446,0.378413951,1579,
0.088196,0.324276,-0.107848,-0.249612,0.423192942,1580,
0.095309,0.321348,-0.10614,-0.197152,0.391662033,1581,
0.10249,0.322324,-0.101748,-0.204228,0.39491074,1582,
0.109705,0.323788,-0.08418,-0.19398,0.386721065,1583,
0.117397,0.325984,-0.072224,-0.17446,0.376720276,1584,
0.123816,0.329156,-0.061,-0.162992,0.372331928,1585,
0.131317,0.331352,-0.045872,-0.147864,0.365735083,1586,
0.138978,0.335988,-0.026596,-0.138104,0.364236185,1587,
0.150323,0.344528,-0.026596,-0.135908,0.371319101,1588,
0.157661,0.345016,-0.037088,-0.135176,0.372403157,1589,
0.165119,0.33306,-0.038064,-0.13298,0.360640419,1590,
0.171643,0.331352,-0.05002,-0.132492,0.360347441,1591,
0.178666,0.321592,-0.065636,-0.13542,0.355060664,1592,
0.185742,0.322568,-0.075884,-0.148108,0.362966218,1593,
0.19294,0.334036,-0.081008,-0.1647,0.381140965,1594,
0.200432,0.33794,-0.07808,-0.18056,0.391026653,1595,
0.207929,0.3416,-0.085644,-0.194224,0.402179583,1596,
0.217223,0.3416,-0.092964,-0.19886,0.406051924,1597,
0.224033,0.3721,-0.111752,-0.188368,0.431774736,1598,
0.230506,0.382836,-0.126148,-0.18666,0.444205669,1599,
0.237833,0.37332,-0.142252,-0.184952,0.440239362,1600,
0.24424,0.36234,-0.142252,-0.183244,0.430237458,1601,
0.25142,0.342332,-0.14274,-0.18422,0.414129103,1602,
0.259382,0.35258,-0.135908,-0.17202,0.415180107,1603,
0.266227,0.320616,-0.130296,-0.162748,0.382437679,1604,
0.272616,0.290848,-0.103456,-0.158356,0.346947151,1605,
0.280436,0.256932,-0.090036,-0.156648,0.314100509,1606,
0.286845,0.227652,-0.09638,-0.146644,0.287435211,1607,
0.29396,0.208864,-0.093696,-0.145912,0.271465325,1608,
0.300434,0.192028,-0.081252,-0.145668,0.254353704,1609,
0.307248,0.173484,-0.074908,-0.150304,0.241452271,1610,
0.313591,0.161772,-0.070272,-0.152744,0.233321802,1611,
0.321134,0.138348,-0.058316,-0.15372,0.214873831,1612,
0.329017,0.122732,-0.050996,-0.157624,0.206177257,1613,
0.335863,0.116632,-0.03538,-0.157136,0.198862994,1614,
0.342601,0.114924,-0.026596,-0.156892,0.196290531,1615,
0.34895,0.119804,-0.012444,-0.167628,0.206414626,1616,
0.356149,0.127612,-0.002928,-0.174948,0.216564536,1617,
0.363463,0.149572,-0.000488,-0.198128,0.248247308,1618,
0.371643,0.15982,0.003416,-0.21594,0.268671147,1619,
0.37802,0.245952,-0.00122,-0.226676,0.334478525,1620,
0.385307,0.228384,-0.001708,-0.237656,0.329609683,1621,
0.391851,0.261324,-0.005368,-0.245464,0.358568855,1622,
0.399269,0.325252,-0.000976,-0.24888,0.409549839,1623,
0.406253,0.413824,-0.030012,-0.239852,0.479249418,1624,
0.413308,0.427,-0.052216,-0.23302,0.489238011,1625,
0.42019,0.415532,-0.062464,-0.24278,0.48529447,1626,
0.427959,0.395036,-0.074908,-0.238632,0.467557356,1627,
0.43616,0.388692,-0.087352,-0.207888,0.449365401,1628,
0.443197,0.401136,-0.093452,-0.174948,0.447493206,1629,
0.450078,0.411384,-0.093208,-0.14884,0.447300651,1630,
0.456484,0.384056,-0.092964,-0.133712,0.417157303,1631,
0.464136,0.358192,-0.097112,-0.132736,0.394146033,1632,
0.471177,0.324276,-0.100284,-0.13786,0.366356636,1633,
0.477555,0.32208,-0.110044,-0.138592,0.367495511,1634,
0.48525,0.308172,-0.111508,-0.153232,0.361779023,1635,
0.491768,0.251564,-0.103212,-0.16836,0.319815967,1636,
0.498786,0.222772,-0.090768,-0.180072,0.300486471,1637,
0.505897,0.198128,-0.088816,-0.179096,0.28145757,1638,
0.513435,0.17446,-0.07198,-0.179096,0.26017838,1639,
0.519902,0.168604,-0.067832,-0.174216,0.25175326,1640,
0.527175,0.160552,-0.054656,-0.168848,0.239319598,1641,
0.533585,0.154696,-0.031232,-0.166652,0.229519453,1642,
0.541316,0.153232,-0.006832,-0.159576,0.221339607,1643,
0.547716,0.16348,-0.006832,-0.145668,0.219069744,1644,
0.555013,0.18056,-0.00122,-0.133956,0.224827961,1645,
0.561525,0.184708,0.00976,-0.134932,0.228951845,1646,
0.568647,0.196664,0.0244,-0.130052,0.237035043,1647,
0.576335,0.2074,0.050508,-0.130296,0.250085717,1648,
0.582716,0.304268,0.040748,-0.132248,0.334258805,1649,
0.589937,0.262544,0.038796,-0.125416,0.293536462,1650,
0.597003,0.277672,0.032452,-0.124928,0.306205612,1651,
0.604079,0.290116,0.021472,-0.125416,0.31679254,1652,
0.611464,0.300608,0.008784,-0.129564,0.327458636,1653,
0.618527,0.298412,-0.061976,-0.125904,0.329761374,1654,
0.624941,0.294508,-0.007808,-0.125172,0.320099916,1655,
0.632399,0.281332,0.004392,-0.129076,0.30956033,1656,
0.638745,0.281332,-0.00488,-0.131516,0.310592928,1657,
0.647765,0.273036,-0.005612,-0.135176,0.304717415,1658,
0.654658,0.26718,-0.001708,-0.131028,0.297584285,1659,
0.66117,0.188612,-0.011956,-0.132004,0.230526546,1660,
0.668201,0.230092,0.014152,-0.142008,0.270756126,1661,
0.675222,0.23058,0.010248,-0.158356,0.279908522,1662,
0.682433,0.238388,-0.002928,-0.158112,0.286071348,1663,
0.689777,0.230092,0.000488,-0.150548,0.274967756,1664,
0.69623,0.231556,0.005124,-0.139812,0.27053989,1665,
0.703896,0.250344,0.003416,-0.128344,0.281346707,1666,
0.710377,0.2684,0.057096,-0.123952,0.301102327,1667,
0.717899,0.285236,-0.019276,-0.126148,0.312481132,1668,
0.724288,0.294264,-0.037332,-0.13176,0.324569989,1669,
0.732049,0.308172,-0.054168,-0.141032,0.343211566,1670,
0.73841,0.33428,-0.067588,-0.150548,0.372794791,1671,
0.745773,0.35624,-0.058804,-0.166896,0.397767674,1672,
0.752612,0.373076,-0.048312,-0.1769,0.415708264,1673,
0.759488,0.379908,-0.039528,-0.181292,0.422799409,1674,
0.765977,0.3721,-0.033672,-0.177144,0.41348786,1675,
0.77375,0.361364,-0.04148,-0.167872,0.400606464,1676,
0.780806,0.36356,-0.049288,-0.17446,0.406252966,1677,
0.787187,0.37332,-0.051728,-0.17934,0.417380455,1678,
0.794854,0.382836,-0.051484,-0.17568,0.424355355,1679,
0.802024,0.377956,-0.05246,-0.173972,0.419367436,1680,
0.808668,0.380884,-0.043188,-0.159332,0.415119875,1681,
0.815058,0.359168,-0.119804,-0.157136,0.409934596,1682,
0.822281,0.339404,-0.088328,-0.145912,0.37985158,1683,
0.829327,0.325984,-0.120536,-0.143228,0.375910569,1684,
0.836987,0.341844,-0.144204,-0.165676,0.406325794,1685,
0.843395,0.368196,-0.146888,-0.188856,0.439102457,1686,
0.850527,0.411384,-0.130052,-0.218136,0.483460063,1687,
0.857686,0.497516,-0.094672,-0.258396,0.568553824,1688,
0.864089,0.414556,-0.052216,-0.290848,0.509093063,1689,
0.870948,0.383812,-0.024156,-0.30988,0.493883365,1690,
0.877339,0.355996,-0.01708,-0.301584,0.466880914,1691,
0.885035,0.329156,-0.003904,-0.290116,0.438778084,1692,
0.891536,0.297436,-0.005612,-0.27206,0.40313312,1693,
0.898315,0.272548,-0.01342,-0.25498,0.37346661,1694,
0.905015,0.257176,-0.020252,-0.234972,0.348943375,1695,
0.911533,0.244488,-0.016836,-0.222772,0.331187556,1696,
0.918305,0.221552,-0.017324,-0.209596,0.305476501,1697,
0.924701,0.20252,-0.017324,-0.199836,0.285041924,1698,
0.931937,0.163968,-0.0244,-0.194224,0.255350401,1699,
0.938339,0.14152,-0.027816,-0.192028,0.240159099,1700,
0.945105,0.12566,-0.036844,-0.183732,0.22562217,1701,
0.953018,0.111996,-0.048556,-0.17202,0.210930485,1702,
0.96122,0.09394,-0.083204,-0.15006,0.195616034,1703,
0.968259,0.088816,-0.105652,-0.137128,0.194562883,1704,
0.97588,0.08052,-0.123464,-0.115168,0.187057472,1705,
0.983011,0.082716,-0.142252,-0.103212,0.194242851,1706,
0.989489,0.098332,-0.158844,-0.095892,0.209990176,1707,
0.996535,0.116144,-0.158844,-0.093696,0.217944455,1708,
0.004403,0.155184,-0.153476,-0.099064,0.239688616,1709,
0.010848,0.188856,-0.13908,-0.116388,0.26183201,1710,
0.017922,0.212768,-0.164456,-0.13664,0.301639665,1711,
0.025345,0.309636,-0.15494,-0.153232,0.378630297,1712,
0.031854,0.310856,-0.152744,-0.175436,0.38825246,1713,
0.039537,0.35014,-0.174704,-0.203496,0.441055699,1714,
0.045959,0.362828,-0.15738,-0.212524,0.448975581,1715,
0.053729,0.345016,-0.117608,-0.213744,0.422556717,1716,
0.0602,0.333548,-0.102968,-0.228628,0.417285801,1717,
0.067698,0.34404,-0.089792,-0.258396,0.439539097,1718,
0.074091,0.377224,-0.037332,-0.260836,0.46013807,1719,
0.081878,0.415044,-0.004392,-0.235704,0.477322938,1720,
0.088687,0.403576,-0.00244,-0.220088,0.459693669,1721,
0.095075,0.353556,-0.03904,-0.211304,0.413733425,1722,
0.10284,0.33672,-0.040992,-0.199348,0.393446728,1723,
0.10972,0.313052,-0.038796,-0.19886,0.372896747,1724,
0.116184,0.293288,-0.054168,-0.199836,0.359007591,1725,
0.12351,0.271084,-0.053924,-0.196176,0.338938572,1726,
0.129992,0.228384,-0.067344,-0.194712,0.307582881,1727,
0.137368,0.203252,-0.08296,-0.184952,0.287055708,1728,
0.143763,0.19276,-0.09882,-0.179584,0.281375591,1729,
0.150912,0.175924,-0.099796,-0.168848,0.263473229,1730,
0.157703,0.165432,-0.100528,-0.158844,0.250409748,1731,
0.164105,0.155916,-0.107116,-0.14518,0.238455172,1732,
0.171599,0.15616,-0.11102,-0.122,0.227146178,1733,
0.177984,0.163236,-0.100284,-0.116876,0.224416737,1734,
0.184785,0.173972,-0.09516,-0.105408,0.224571879,1735,
0.192608,0.202032,-0.115168,-0.101016,0.253544532,1736,
0.199257,0.222772,-0.106628,-0.097112,0.265382055,1737,
0.205758,0.238876,-0.092476,-0.094428,0.2730022,1738,
0.212662,0.232044,-0.088572,-0.101748,0.268406544,1739,
0.219815,0.253272,-0.093452,-0.104188,0.289370216,1740,
0.228054,0.279868,-0.103212,-0.10248,0.315406032,1741,
0.235176,0.277916,-0.094428,-0.103456,0.311218724,1742,
0.243745,0.2928,-0.107116,-0.109312,0.330385821,1743,
0.250226,0.293044,-0.09882,-0.116876,0.330605774,1744,
0.257594,0.284748,-0.096868,-0.121756,0.324483214,1745,
0.26399,0.286456,-0.0976,-0.1281,0.328621986,1746,
0.270794,0.282064,-0.099796,-0.130784,0.326532994,1747,
0.277232,0.277428,-0.100284,-0.137128,0.325311027,1748,
0.284042,0.276696,-0.094672,-0.140056,0.324251673,1749,
0.290767,0.278892,-0.095892,-0.139568,0.326274807,1750,
0.297933,0.277916,-0.088328,-0.14152,0.324140477,1751,
0.304715,0.280356,-0.068076,-0.141276,0.321236263,1752,
0.311179,0.283528,-0.077104,-0.149572,0.329704317,1753,
0.317945,0.289384,-0.069784,-0.152012,0.334246248,1754,
0.324361,0.296948,-0.065148,-0.158112,0.342668617,1755,
0.331257,0.298168,-0.059536,-0.160308,0.343725685,1756,
0.338268,0.298656,-0.124928,-0.168604,0.365006466,1757,
0.344676,0.299144,-0.058316,-0.172996,0.350450431,1758,
0.351776,0.300364,-0.057828,-0.178364,0.354085197,1759,
0.358341,0.303292,-0.063684,-0.183,0.359903722,1760,
0.365619,0.30866,-0.072224,-0.194468,0.371893943,1761,
0.374414,0.314028,-0.06832,-0.204716,0.381037856,1762,
0.380883,0.325008,-0.05612,-0.209596,0.390781445,1763,
0.387695,0.331108,-0.04636,-0.210572,0.395123176,1764,
0.395401,0.335988,-0.021228,-0.201788,0.392500906,1765,
0.401922,0.332816,-0.00854,-0.191296,0.383970808,1766,
0.408695,0.334036,0.005124,-0.175924,0.377565304,1767,
0.415085,0.321836,0.00366,-0.16714,0.362667322,1768,
0.422016,0.316224,0.00732,-0.151036,0.350518293,1769,
0.429055,0.312808,-0.000732,-0.13786,0.341840256,1770,
0.436004,0.315492,-0.020252,-0.131516,0.342405905,1771,
0.442483,0.325008,-0.050752,-0.127368,0.352744345,1772,
0.449291,0.33428,-0.07198,-0.12444,0.363881234,1773,
0.455675,0.345504,-0.091256,-0.121024,0.37728965,1774,
0.462565,0.350872,-0.113948,-0.129564,0.391001454,1775,
0.468962,0.339892,-0.122488,-0.14274,0.388464399,1776,
0.475807,0.338428,-0.128832,-0.1647,0.397815642,1777,
0.482281,0.338184,-0.129564,-0.184952,0.40664787,1778,
0.489027,0.3538,-0.142984,-0.196176,0.429073289,1779,
0.496122,0.365756,-0.153964,-0.20862,0.448335443,1780,
0.502575,0.38674,-0.159576,-0.214232,0.470029443,1781,
0.510031,0.394792,-0.166896,-0.2135,0.478849922,1782,
0.516444,0.389668,-0.16714,-0.206668,0.471686964,1783,
0.523701,0.3843,-0.16958,-0.19154,0.461661606,1784,
0.531398,0.368196,-0.171776,-0.156648,0.435446764,1785,
0.538206,0.341112,-0.16592,-0.135664,0.402854271,1786,
0.546566,0.323788,-0.147864,-0.120048,0.375651373,1787,
0.554647,0.28304,-0.139568,-0.111752,0.334782583,1788,
0.561128,0.189344,-0.12688,-0.11346,0.254603331,1789,
0.56819,0.209352,-0.113216,-0.122488,0.267674117,1790,
0.575357,0.182756,-0.108092,-0.122976,0.245370603,1791,
0.582437,0.15372,-0.104188,-0.124928,0.223812383,1792,
0.588783,0.133712,-0.088572,-0.130296,0.206642072,1793,
0.595582,0.11102,-0.065148,-0.131028,0.183679174,1794,
0.602095,0.102724,-0.050996,-0.135176,0.177272003,1795,
0.609729,0.090524,-0.041968,-0.1403,0.172162707,1796,
0.616738,0.088084,-0.033916,-0.149572,0.176863985,1797,
0.623798,0.092964,-0.030744,-0.154208,0.182668022,1798,
0.630267,0.106872,-0.0183,-0.177388,0.20790146,1799,
0.637042,0.128344,-0.029036,-0.194956,0.23520866,1800,
0.646361,0.153964,-0.045872,-0.215696,0.268949657,1801,
0.655224,0.214964,-0.073932,-0.22936,0.322926418,1802,
0.662129,0.249368,-0.077104,-0.227408,0.346184668,1803,
0.668473,0.284992,-0.109068,-0.244,0.390707395,1804,
0.675526,0.341356,-0.119804,-0.255956,0.443159555,1805,
0.682682,0.4453,-0.137128,-0.248636,0.528125022,1806,
0.689547,0.517524,-0.148352,-0.242048,0.590276749,1807,
0.695926,0.52094,-0.150304,-0.241072,0.593367917,1808,
0.702801,0.392352,-0.128344,-0.239852,0.477431939,1809,
0.70919,0.327692,-0.105896,-0.233508,0.416079314,1810,
0.716414,0.350628,-0.084912,-0.209352,0.417107063,1811,
0.723475,0.386984,-0.063196,-0.184952,0.433540763,1812,
0.730652,0.366,-0.063196,-0.164944,0.406394214,1813,
0.737546,0.353068,-0.061976,-0.156404,0.391101328,1814,
0.744509,0.329156,-0.0732,-0.1586,0.372633697,1815,
0.75097,0.299876,-0.078568,-0.15372,0.346017896,1816,
0.758678,0.25986,-0.075884,-0.165432,0.317259118,1817,
0.766393,0.2318,-0.087596,-0.168848,0.299856543,1818,
0.773668,0.199592,-0.092964,-0.17202,0.279410365,1819,
0.78016,0.168604,-0.097356,-0.18056,0.26553232,1820,
0.78735,0.161772,-0.110288,-0.19032,0.273048211,1821,
0.793756,0.195932,-0.142008,-0.177876,0.300325643,1822,
0.80063,0.158844,-0.091744,-0.169336,0.249645867,1823,
0.80704,0.116388,-0.020984,-0.162016,0.200588332,1824,
0.813846,0.127124,-0.0305,-0.162748,0.20875266,1825,
0.820353,0.143716,-0.0671,-0.168116,0.231126996,1826,
0.827215,0.1708,-0.062464,-0.162504,0.243889199,1827,
0.83362,0.201544,-0.01342,-0.149328,0.251195008,1828,
0.840526,0.226188,0.011956,-0.142496,0.267598706,1829,
0.847325,0.227408,0.002684,-0.144692,0.269550324,1830,
0.85372,0.235704,0.0122,-0.14152,0.275196523,1831,
0.859819,0.237412,0.011468,-0.142984,0.277381321,1832,
0.865617,0.237168,0.010736,-0.142984,0.277143187,1833,
0.871458,0.259128,0.014152,-0.140544,0.295127456,1834,
0.878136,0.266448,0.015616,-0.140788,0.301760927,1835,
0.884152,0.26474,0.017324,-0.149816,0.304683807,1836,
0.890997,0.254004,0.005856,-0.153476,0.296828582,1837,
0.900533,0.261812,0.000732,-0.162504,0.308145435,1838,
0.908058,0.244732,-0.00122,-0.172508,0.299423196,1839,
0.914934,0.241804,-0.000488,-0.176412,0.299316899,1840,
0.923222,0.237656,-0.001464,-0.182268,0.299506497,1841,
0.931109,0.234972,-0.001464,-0.177388,0.2944155,1842,
0.939365,0.233508,0.000488,-0.171288,0.289595931,1843,
0.947321,0.234972,0.010492,-0.171776,0.291254042,1844,
0.95508,0.237412,0.018788,-0.16958,0.292360776,1845,
0.96257,0.245708,0.01708,-0.17202,0.300424746,1846,
0.970992,0.250832,0.011224,-0.174704,0.305882589,1847,
0.977393,0.254736,0.006344,-0.171532,0.307170804,1848,
0.98509,0.271084,0.002196,-0.169824,0.319893027,1849,
0.991546,0.273524,-0.00244,-0.1647,0.319292064,1850,
0.998533,0.282796,-0.020496,-0.164944,0.328024674,1851,
0.006184,0.305488,-0.030256,-0.16958,0.350707457,1852,
0.012577,0.315492,-0.026352,-0.172264,0.36042269,1853,
0.019537,0.331108,-0.026108,-0.180804,0.37815899,1854,
0.026978,0.33306,0.059292,-0.185196,0.385670926,1855,
0.03337,0.328424,0.008052,-0.188368,0.378694682,1856,
0.040503,0.322324,0.028548,-0.196664,0.378661429,1857,
0.048367,0.318908,0,-0.194712,0.373651008,1858,
0.05527,0.306952,-0.025132,-0.195932,0.365021227,1859,
0.062039,0.31598,-0.046848,-0.199836,0.376792413,1860,
0.068503,0.33794,-0.061976,-0.193004,0.394074881,1861,
0.076229,0.353068,-0.05612,-0.182268,0.401283056,1862,
0.083249,0.365024,-0.054412,-0.173728,0.40790269,1863,
0.090128,0.379908,-0.042212,-0.161528,0.414973778,1864,
0.096528,0.387716,-0.033184,-0.145424,0.415419083,1865,
0.104177,0.36478,-0.03172,-0.121024,0.38563897,1866,
0.111242,0.347944,-0.042456,-0.116876,0.369496331,1867,
0.118311,0.3111,-0.06832,-0.101016,0.334148267,1868,
0.125334,0.295728,-0.071248,-0.110288,0.323565713,1869,
0.131863,0.294996,-0.103944,-0.130784,0.339015412,1870,
0.138915,0.274012,-0.083448,-0.163968,0.330047951,1871,
0.145986,0.310124,-0.09394,-0.21228,0.387381488,1872,
0.153193,0.331596,-0.068076,-0.259128,0.426306896,1873,
0.160401,0.347456,-0.045872,-0.293044,0.456842093,1874,
0.168197,0.373808,-0.025376,-0.337696,0.504395629,1875,
0.174576,0.3843,-0.022448,-0.356972,0.524994678,1876,
0.181794,0.375516,-0.027816,-0.369172,0.527327187,1877,
0.188792,0.370148,-0.030988,-0.362828,0.519243638,1878,
0.195906,0.343064,-0.015372,-0.347212,0.488349649,1879,
0.202993,0.322812,0.0549,-0.33916,0.471435152,1880,
0.210474,0.276452,-0.009516,-0.30866,0.414472265,1881,
0.216877,0.244488,-0.001464,-0.271328,0.365233362,1882,
0.223687,0.209108,-0.008784,-0.239852,0.318327341,1883,
0.230163,0.171288,-0.016104,-0.216916,0.276860017,1884,
0.236953,0.141032,-0.034404,-0.193736,0.242089442,1885,
0.24335,0.118096,-0.04636,-0.179828,0.220077315,1886,
0.250237,0.08784,-0.060268,-0.165188,0.196558319,1887,
0.256681,0.081496,-0.074908,-0.1586,0.19340829,1888,
0.26347,0.069296,-0.103456,-0.137616,0.185588909,1889,
0.269958,0.064416,-0.1342,-0.122244,0.192620499,1890,
0.27679,0.048312,-0.154208,-0.118828,0.200584771,1891,
0.283182,0.044896,-0.1769,-0.107116,0.211620175,1892,
0.290089,0.043432,-0.197152,-0.110532,0.230157713,1893,
0.296503,0.061,-0.190564,-0.102236,0.224694988,1894,
0.303315,0.095892,-0.184464,-0.08906,0.226172338,1895,
0.309792,0.147864,-0.147132,-0.104676,0.233385203,1896,
0.316595,0.20496,-0.119316,-0.136884,0.273828667,1897,
0.322992,0.281088,-0.129076,-0.183244,0.359512783,1898,
0.330467,0.431636,-0.127612,-0.24888,0.514330354,1899,
0.33688,0.505324,-0.0915,-0.163236,0.538860452,1900,
0.343715,0.49166,-0.09028,-0.2318,0.551009323,1901,
0.350179,0.399672,-0.085644,-0.199104,0.454659219,1902,
0.357748,0.319884,-0.105652,-0.223992,0.404549793,1903,
0.365784,0.294508,-0.073688,-0.238632,0.386147789,1904,
0.373773,0.374052,-0.031476,-0.231556,0.441048544,1905,
0.380274,0.421876,0.001708,-0.227408,0.47926681,1906,
0.388056,0.397232,-0.051972,-0.223016,0.458508982,1907,
0.394377,0.356972,-0.022936,-0.218136,0.41897301,1908,
0.40165,0.323544,-0.05978,-0.213744,0.392352986,1909,
0.408428,0.305244,-0.06588,-0.208376,0.375412615,1910,
0.416582,0.272548,-0.05978,-0.211792,0.350302601,1911,
0.422975,0.245464,-0.083204,-0.200812,0.32787336,1912,
0.429846,0.196664,-0.091744,-0.192516,0.290096709,1913,
0.437562,0.169336,-0.102236,-0.172996,0.262782223,1914,
0.444364,0.157868,-0.11102,-0.155428,0.247801552,1915,
0.452168,0.150548,-0.10736,-0.132004,0.227191386,1916,
0.459261,0.149572,-0.094428,-0.110288,0.208451129,1917,
0.466128,0.155184,-0.091256,-0.089304,0.200960035,1918,
0.473761,0.155184,-0.055632,-0.10126,0.193469845,1919,
0.48023,0.152744,-0.084668,-0.07198,0.18889288,1920,
0.487499,0.173728,-0.07076,-0.062708,0.197789506,1921,
0.493887,0.248636,-0.05978,-0.070516,0.265265933,1922,
0.501534,0.207888,-0.06222,-0.089548,0.234750065,1923,
0.508118,0.244244,-0.061244,-0.10736,0.273737335,1924,
0.515106,0.293776,-0.097356,-0.11956,0.331778725,1925,
0.522042,0.281088,-0.038552,-0.133468,0.313544937,1926,
0.528403,0.266936,-0.05246,-0.148108,0.309746444,1927,
0.535971,0.276696,-0.056608,-0.160064,0.324631524,1928,
0.542454,0.282796,-0.071736,-0.157868,0.331725695,1929,
0.549722,0.304512,-0.081496,-0.156892,0.352113981,1930,
0.556384,0.31232,-0.092476,-0.15494,0.360696544,1931,
0.563164,0.310124,-0.088816,-0.147376,0.354661617,1932,
0.569708,0.304268,-0.085644,-0.145668,0.348041774,1933,
0.577158,0.301096,-0.085888,-0.14152,0.343603638,1934,
0.584157,0.295484,-0.070272,-0.141276,0.334974412,1935,
0.591488,0.29036,-0.07076,-0.144204,0.331829325,1936,
0.597865,0.287432,-0.077836,-0.143472,0.330544721,1937,
0.604908,0.28792,-0.069052,-0.146888,0.330518063,1938,
0.611822,0.290604,-0.06466,-0.146888,0.331975428,1939,
0.619927,0.290116,-0.05612,-0.15006,0.331413264,1940,
0.62635,0.296704,-0.04636,-0.149816,0.335599981,1941,
0.63349,0.302072,-0.046848,-0.155428,0.342928697,1942,
0.640675,0.30256,-0.048068,-0.16226,0.346671882,1943,
0.64769,0.300608,-0.040748,-0.170556,0.348015687,1944,
0.654082,0.299876,-0.03904,-0.177876,0.350841287,1945,
0.660975,0.307196,-0.039528,-0.194712,0.365847794,1946,
0.667914,0.310856,-0.03904,-0.204228,0.373984826,1947,
0.674307,0.312808,-0.032696,-0.210572,0.378494968,1948,
0.681695,0.309636,-0.02318,-0.211548,0.375718407,1949,
0.688116,0.313296,-0.017812,-0.207888,0.376416088,1950,
0.694912,0.316468,-0.014884,-0.20008,0.374707266,1951,
0.70208,0.315492,-0.01464,-0.194224,0.370772833,1952,
0.708457,0.322812,-0.00732,-0.18422,0.371750156,1953,
0.71527,0.321836,-0.011468,-0.182756,0.370283245,1954,
0.722434,0.324764,-0.013664,-0.180072,0.37159694,1955,
0.728743,0.323544,-0.016104,-0.180804,0.370985371,1956,
0.735553,0.338672,-0.0244,-0.1891,0.388655237,1957,
0.742077,0.341844,-0.047824,-0.216916,0.407672671,1958,
0.749174,0.349896,-0.078324,-0.253516,0.439126658,1959,
0.756008,0.371124,-0.10126,-0.27816,0.474720546,1960,
0.763235,0.39772,-0.10492,-0.294508,0.505889679,1961,
0.770197,0.402112,-0.137616,-0.306952,0.524263058,1962,
0.777647,0.407968,-0.184464,-0.298412,0.538065589,1963,
0.784865,0.3904,-0.13054,-0.264008,0.489032796,1964,
0.792007,0.366244,-0.17934,-0.2135,0.460303979,1965,
0.798838,0.3416,-0.14884,-0.172264,0.410510403,1966,
0.805754,0.25376,-0.138348,-0.152012,0.326560798,1967,
0.812256,0.277672,-0.127856,-0.14762,0.339471001,1968,
0.819232,0.24522,-0.131028,-0.145424,0.313766354,1969,
0.826574,0.221064,-0.0671,-0.1342,0.267172869,1970,
0.832983,0.188124,-0.113948,-0.124684,0.252825802,1971,
0.840787,0.166164,-0.117364,-0.120048,0.236212416,1972,
0.847199,0.137128,-0.115168,-0.115168,0.212911777,1973,
0.854366,0.116144,-0.104432,-0.111996,0.192194109,1974,
0.86159,0.107116,-0.088816,-0.113948,0.179850677,1975,
0.868648,0.089792,-0.072224,-0.119072,0.165701692,1976,
0.875407,0.09394,-0.065636,-0.120536,0.166318175,1977,
0.881921,0.07686,-0.04148,-0.120292,0.148654685,1978,
0.888677,0.084668,-0.02196,-0.12688,0.154108553,1979,
0.895079,0.078568,-0.010736,-0.13176,0.153781956,1980,
0.902011,0.081496,0.011468,-0.139324,0.161815605,1981,
0.908359,0.091012,0.0061,-0.121268,0.151744265,1982,
0.915163,0.12688,0.035624,-0.134688,0.188436889,1983,
0.921762,0.1891,-0.00976,-0.17202,0.255822102,1984,
0.929027,0.251808,-0.012444,-0.225456,0.338219647,1985,
0.936908,0.332328,-0.02074,-0.223016,0.400759508,1986,
0.944037,0.37454,-0.02196,-0.233996,0.442172569,1987,
0.952674,0.441152,-0.098332,-0.28426,0.533936342,1988,
0.959319,0.509716,-0.133468,-0.302072,0.607348006,1989,
0.966369,0.486536,-0.109556,-0.289872,0.576841029,1990,
0.972769,0.409188,-0.099796,-0.274744,0.502870089,1991,
0.979846,0.375028,-0.08662,-0.274744,0.472898817,1992,
0.986268,0.398696,-0.08052,-0.246196,0.475451829,1993,
0.993044,0.426024,-0.047336,-0.12932,0.447728498,1994,
0.999984,0.398696,-0.02928,-0.16958,0.434250153,1995,
0.007043,0.3721,-0.067344,-0.188124,0.422355613,1996,
0.01409,0.34282,-0.039284,-0.216184,0.40719075,1997,
0.020543,0.291092,-0.000732,-0.21106,0.359557244,1998,
0.027364,0.23912,-0.005124,-0.223016,0.32701799,1999,
0.033759,0.206668,-0.008052,-0.214476,0.297953774,2000,
0.040646,0.202764,-0.016836,-0.216916,0.297404172,2001,
0.047034,0.209108,-0.044164,-0.199592,0.292427052,2002,
0.053864,0.128344,-0.05978,-0.186416,0.234087069,2003,
0.060993,0.156404,-0.033184,-0.162748,0.22814535,2004,
0.067387,0.164944,-0.010736,-0.173972,0.239975085,2005,
0.074437,0.18544,-0.027084,-0.178364,0.258718482,2006,
0.080883,0.191784,-0.032696,-0.165432,0.255377912,2007,
0.088636,0.1769,-0.041724,-0.154208,0.238358154,2008,
0.095024,0.1891,-0.044408,-0.12688,0.23201167,2009,
0.101954,0.196176,-0.036112,-0.102236,0.22414571,2010,
0.110346,0.208376,-0.065636,-0.088572,0.235740622,2011,
0.117461,0.254248,-0.049776,-0.126148,0.288154496,2012,
0.125023,0.262056,-0.034404,-0.135908,0.297200213,2013,
0.131941,0.284748,-0.075884,-0.117852,0.317378164,2014,
0.138312,0.302804,-0.0488,-0.109556,0.325690374,2015,
0.150715,0.27206,-0.08662,-0.10736,0.305034158,2016,
0.157158,0.260592,-0.011956,-0.119072,0.286756478,2017,
0.164566,0.255468,-0.141276,-0.1159,0.314094918,2018,
0.171036,0.266448,-0.126636,-0.07564,0.304553153,2019,
0.177825,0.232044,-0.000732,-0.080276,0.245538571,2020,
0.184219,0.271572,-0.020008,-0.133712,0.303365407,2021,
0.19111,0.274256,-0.024644,-0.238632,0.364374686,2022,
0.197518,0.232288,-0.039772,-0.209596,0.315388665,2023,
0.204341,0.300364,-0.266448,-0.22448,0.460004717,2024,
0.210804,0.244976,0.018544,-0.06588,0.254356629,2025,
0.217556,0.212524,-0.045384,-0.128832,0.252633811,2026,
0.224614,0.194468,-0.093208,-0.1403,0.257273443,2027,
0.231117,0.265716,-0.083204,-0.177144,0.330011962,2028,
0.237927,0.2562,-0.164212,-0.24034,0.387772274,2029,
0.244312,0.218136,-0.250588,-0.261568,0.422842144,2030,
0.2512,0.203496,-0.088816,-0.272548,0.351541343,2031,
0.257576,0.181292,-0.046848,-0.2989,0.352707718,2032,
0.264383,0.244488,-0.058804,-0.295972,0.388370593,2033,
0.271102,0.2745,0.108824,-0.304756,0.424345534,2034,
0.277453,0.410896,0.05002,-0.300364,0.511425513,2035,
0.2843,0.405528,0.052216,-0.283528,0.497561651,2036,
0.291874,0.395524,0.0061,-0.261812,0.474364805,2037,
0.298275,0.34282,0.022448,-0.214964,0.405264095,2038,
0.305092,0.314028,0.049288,-0.22204,0.387743025,2039,
0.311606,0.296216,-0.032452,-0.221552,0.371325113,2040,
0.318354,0.308416,-0.055144,-0.199836,0.37161232,2041,
0.324746,0.332816,-0.047824,-0.180804,0.381763947,2042,
0.331621,0.351604,-0.009272,-0.165676,0.388792849,2043,
0.338,0.339892,-0.117852,-0.151768,0.390447425,2044,
0.344782,0.332816,-0.182756,-0.156404,0.410643954,2045,
0.351376,0.342088,-0.101748,-0.157136,0.389959713,2046,
0.358472,0.321836,-0.0427,-0.163236,0.363383671,2047,
0.366254,0.297192,-0.044896,-0.21594,0.370092987,2048,
0.373296,0.290604,-0.030012,-0.197396,0.352585572,2049,
0.38038,0.285724,-0.119316,-0.188856,0.362685953,2050,
0.386799,0.259128,-0.145424,-0.158112,0.336593025,2051,
0.3936,0.241804,-0.118584,-0.116388,0.293389683,2052,
0.401389,0.174704,-0.219356,-0.148108,0.317134864,2053,
0.408211,-0.011956,-0.239608,-0.121024,0.26870383,2054,
0.414609,0.068076,-0.246196,-0.183244,0.314364718,2055,
0.422086,0.184464,-0.133468,-0.227652,0.321972215,2056,
0.428447,0.16958,-0.167872,-0.228384,0.330299313,2057,
0.435175,0.301828,-0.082228,-0.004392,0.312859194,2058,
0.441905,0.242292,-0.13176,-0.216428,0.350581217,2059,
0.448686,0.260836,-0.146156,-0.158112,0.338225368,2060,
0.455072,0.271084,-0.140544,-0.201788,0.366002115,2061,
0.462228,0.257908,-0.143472,-0.15006,0.331087231,2062,
0.468955,0.233508,-0.18178,-0.152744,0.333017543,2063,
0.475736,0.18544,-0.236924,-0.122488,0.324845018,2064,
0.483537,0.126392,-0.158356,-0.08906,0.221321585,2065,
0.490009,0.2257,-0.129076,-0.17934,0.315854301,2066,
0.496851,0.294264,-0.140544,-0.158844,0.362733144,2067,
0.50325,0.275232,-0.131272,-0.16836,0.348324678,2068,
0.510177,0.254736,-0.122244,-0.169824,0.329657726,2069,
0.517038,0.241072,-0.114192,-0.194956,0.330398795,2070,
0.523854,0.222772,-0.093452,-0.201056,0.314299468,2071,
0.530218,0.22082,-0.08174,-0.180072,0.296426762,2072,
0.536156,0.205692,-0.137128,-0.170312,0.300199042,2073,
0.541909,0.197152,-0.120536,-0.175436,0.290130365,2074,
0.548774,0.192516,-0.100284,-0.171776,0.276814532,2075,
0.554511,0.173728,-0.1464,-0.162504,0.279324056,2076,
0.560467,0.183732,-0.161772,-0.146888,0.28548855,2077,
0.566296,0.170312,-0.172996,-0.131028,0.275866145,2078,
0.572033,0.201544,-0.129808,-0.121512,0.268766194,2079,
0.577922,0.159088,-0.142252,-0.095648,0.233865695,2080,
0.583748,0.140544,-0.1403,-0.114924,0.229443308,2081,
0.589665,0.14274,-0.078812,-0.131516,0.209481496,2082,
0.595475,0.139568,-0.061732,-0.171776,0.22977611,2083,
0.601442,0.16958,-0.10126,-0.224236,0.298818921,2084,
0.607254,0.210328,-0.1037,-0.23546,0.332314564,2085,
0.613065,0.263764,-0.129076,-0.228628,0.372159675,2086,
0.618868,0.295728,-0.154208,-0.248392,0.41585303,2087,
0.624684,0.187392,-0.178608,-0.295972,0.393212416,2088,
0.630603,0.320616,-0.161528,-0.192516,0.407367555,2089,
0.636441,0.189588,-0.1708,-0.227652,0.341967371,2090,
0.642282,0.291092,-0.124928,-0.277428,0.42107939,2091,
0.650927,0.193492,-0.16836,-0.207644,0.330000416,2092,
0.657316,0.194468,-0.184708,-0.26474,0.376858217,2093,
0.664138,0.229116,-0.122732,-0.257176,0.365645703,2094,
0.670574,0.214964,-0.1159,-0.30866,0.393590303,2095,
0.677383,0.182024,-0.10858,-0.310368,0.375833272,2096,
0.684073,0.172996,-0.122,-0.261568,0.336495817,2097,
0.690524,0.183244,-0.133468,-0.258396,0.34374491,2098,
0.696744,0.193248,-0.136884,-0.25742,0.349781468,2099,
0.702504,0.20252,-0.131272,-0.247416,0.345631835,2100,
0.708296,0.209596,-0.127612,-0.23668,0.340929213,2101,
0.715609,0.213744,-0.091256,-0.23424,0.329973533,2102,
0.721494,0.213988,-0.097112,-0.226432,0.326332737,2103,
0.727289,0.215696,-0.12688,-0.224968,0.336502451,2104,
0.735385,0.222772,-0.129076,-0.210816,0.332763225,2105,
0.744737,0.21472,-0.0976,-0.197884,0.307877436,2106,
0.751234,0.219112,-0.115656,-0.196664,0.316327532,2107,
0.758701,0.246196,-0.126636,-0.167628,0.32364841,2108,
0.765704,0.24522,-0.13664,-0.210084,0.350626047,2109,
0.772713,0.254736,-0.183732,-0.203252,0.374111284,2110,
0.779053,0.233996,-0.199348,-0.197884,0.365584232,2111,
0.786541,0.203008,-0.175924,-0.205692,0.33833519,2112,
0.793571,0.230092,-0.160552,-0.258884,0.381759346,2113,
0.800299,0.166896,-0.171776,-0.197396,0.310365027,2114,
0.807285,0.186172,-0.136396,-0.213256,0.314232404,2115,
0.813965,0.183,-0.146888,-0.221308,0.322555911,2116,
0.820741,0.153232,-0.127856,-0.242048,0.313710754,2117,
0.827192,0.138348,-0.122244,-0.251076,0.311645508,2118,
0.83433,0.186172,-0.069784,-0.265716,0.331865655,2119,
0.841765,0.181292,-0.129564,-0.289872,0.36562193,2120,
0.848688,0.177388,-0.168604,-0.28426,0.375096733,2121,
0.855088,0.150304,-0.087596,-0.276208,0.326427957,2122,
0.862707,0.171288,-0.100528,-0.268888,0.334284631,2123,
0.869586,0.177144,-0.094428,-0.263764,0.33146356,2124,
0.876399,0.176656,-0.096136,-0.269864,0.336565077,2125,
0.88277,0.172264,-0.1037,-0.274988,0.340656683,2126,
0.890529,0.16958,-0.113216,-0.274988,0.342335565,2127,
0.897598,0.175436,-0.110776,-0.28182,0.349959461,2128,
0.903981,0.178608,-0.113704,-0.294264,0.362519957,2129,
0.911387,0.179096,-0.115412,-0.277428,0.349802233,2130,
0.918123,0.164944,-0.100528,-0.285724,0.344892166,2131,
0.925609,0.161284,-0.132736,-0.2623,0.335309804,2132,
0.932109,0.15128,-0.12322,-0.265716,0.329657094,2133,
0.939244,0.1647,-0.12566,-0.282308,0.350163294,2134,
0.946815,0.1647,-0.133224,-0.268644,0.342117411,2135,
0.953724,0.167384,-0.134932,-0.280356,0.353303743,2136,
0.960212,0.177632,-0.152744,-0.280356,0.365353724,2137,
0.967843,0.171776,-0.1281,-0.261324,0.337945021,2138,
0.97426,0.155672,-0.117852,-0.260348,0.325428866,2139,
0.981475,0.14274,-0.098088,-0.271328,0.321892602,2140,
0.988555,0.142496,-0.113704,-0.26718,0.323448392,2141,
0.996178,0.127856,-0.14396,-0.26596,0.328338788,2142,
0.002771,0.135908,-0.130296,-0.300608,0.354701567,2143,
0.010508,0.131516,-0.14152,-0.277428,0.338069022,2144,
0.016957,0.085156,-0.167628,-0.242536,0.306878481,2145,
0.024475,0.099796,-0.13664,-0.231312,0.286591997,2146,
0.030918,0.10126,-0.138348,-0.238876,0.294033162,2147,
0.038037,0.105652,-0.129076,-0.249612,0.300215105,2148,
0.045454,0.104188,-0.126392,-0.252296,0.300804502,2149,
0.05239,0.115168,-0.140056,-0.253028,0.311291696,2150,
0.059286,0.11956,-0.138348,-0.261812,0.319343524,2151,
0.066337,0.123952,-0.144692,-0.269376,0.329944393,2152,
0.073346,0.11102,-0.146888,-0.275232,0.331140724,2153,
0.0804,0.09516,-0.14884,-0.275476,0.327254943,2154,
0.086816,0.080276,-0.141032,-0.28182,0.325202665,2155,
0.093813,0.077836,-0.122732,-0.281576,0.316870053,2156,
0.101406,0.079544,-0.110044,-0.28548,0.316126178,2157,
0.108176,0.083936,-0.100528,-0.284748,0.313420731,2158,
0.114791,0.085156,-0.101748,-0.287432,0.316577565,2159,
0.121739,0.09394,-0.109556,-0.289872,0.323810156,2160,
0.12846,0.23424,-0.134444,-0.251564,0.369090792,2161,
0.13485,0.109068,-0.118828,-0.297192,0.338140514,2162,
0.142078,0.106628,-0.123708,-0.302316,0.343610482,2163,
0.149831,0.112972,-0.122,-0.25132,0.301344347,2164,
0.156909,0.102236,-0.116632,-0.30988,0.346526821,2165,
0.163867,0.091744,-0.104432,-0.30866,0.338517355,2166,
0.170928,0.089304,-0.106384,-0.30622,0.336249087,2167,
0.177335,0.083692,-0.109556,-0.295728,0.326285026,2168,
0.184482,0.077104,-0.114436,-0.29768,0.328106701,2169,
0.19176,0.070028,-0.118828,-0.307684,0.337184606,2170,
0.19919,0.072956,-0.066368,-0.297436,0.313361554,2171,
0.205813,0.0854,-0.063684,-0.289384,0.308369764,2172,
0.212969,0.09272,-0.13542,-0.299144,0.341207719,2173,
0.219924,0.089304,-0.135908,-0.314028,0.353637913,2174,
0.226959,0.09394,-0.12932,-0.305488,0.34477718,2175,
0.233681,0.096624,-0.137128,-0.301584,0.345098819,2176,
0.240151,0.099552,-0.128588,-0.302316,0.343278951,2177,
0.247284,0.097356,-0.12078,-0.299144,0.336976456,2178,
0.254383,0.094916,-0.128588,-0.293044,0.333794408,2179,
0.262225,0.100528,-0.131272,-0.299144,0.341797234,2180,
0.26856,0.08906,-0.151036,-0.293532,0.341913135,2181,
0.275983,0.076616,-0.140056,-0.2928,0.33349293,2182,
0.282874,0.069052,-0.143716,-0.296704,0.336831903,2183,
0.289263,0.080276,-0.150792,-0.28792,0.334784094,2184,
0.296348,0.07198,-0.122244,-0.291824,0.324477985,2185,
0.304107,0.08296,-0.12932,-0.295484,0.333041767,2186,
0.310579,0.077836,-0.124684,-0.296216,0.330678789,2187,
0.317694,0.136884,-0.122244,-0.306464,0.357212833,2188,
0.325046,0.066612,-0.146644,-0.284992,0.327356169,2189,
0.332483,0.051484,-0.128588,-0.3172,0.346123267,2190,
0.339105,0.054412,-0.136396,-0.308416,0.341591808,2191,
0.345511,0.047092,-0.132004,-0.305976,0.336547211,2192,
0.35341,0.061488,-0.145668,-0.29768,0.337065754,2193,
0.360396,0.054412,-0.13908,-0.299388,0.334570003,2194,
0.366808,0.02928,-0.128832,-0.288896,0.317672633,2195,
0.374115,0.00488,-0.165432,-0.294996,0.338251683,2196,
0.381077,-0.001952,-0.13786,-0.292312,0.323195754,2197,
0.387742,-0.025132,-0.129076,-0.27938,0.30878053,2198,
0.394137,0.015128,-0.13908,-0.294508,0.326047642,2199,
0.401606,0.385276,-0.112484,-0.23424,0.464713486,2200,
0.408374,0.120292,-0.12444,-0.210084,0.27219619,2201,
0.415252,0.030012,-0.108336,-0.25864,0.282014288,2202,
0.422349,0.013664,-0.134688,-0.366976,0.391150798,2203,
0.429365,0.033428,-0.111996,-0.324276,0.344696184,2204,
0.436011,0.0183,-0.145912,-0.298656,0.332897294,2205,
