time,ACCx,ACCy,ACCz,ACCnorm,,
0.117457,-0.102236,-0.022692,-0.302072,0.319710212,1,0.357071769
0.124958,-0.167872,-0.077836,-0.273768,0.330436634,2,
0.131911,0.394548,-0.06344,-0.236436,0.464321807,3,
0.1402,-0.011956,-0.174704,-0.229116,0.288372285,4,
0.147179,-0.015128,-0.146156,-0.250588,0.290490582,5,
0.159656,0.145912,0.031476,-0.223748,0.268968805,6,
0.167836,0.11346,0.010004,-0.30988,0.330149763,7,
0.176176,0.060268,0.038064,-0.374784,0.381502486,8,
0.132735,0.063196,0.014396,-0.3477,0.35368951,9,
0.139031,0.06222,0.026108,-0.340136,0.346764264,10,
0.145419,0.060512,0.034648,-0.334524,0.341714051,11,
0.151719,0.057584,0.036112,-0.329644,0.336578609,12,
0.157943,0.051484,0.035868,-0.324032,0.330051288,13,
0.164186,0.050752,0.0366,-0.311344,0.317569539,14,
0.170333,0.049288,0.042944,-0.296948,0.304058561,15,
0.176461,0.050996,0.048556,-0.287432,0.295931465,16,
0.183278,0.046604,0.047824,-0.277428,0.285351297,17,
0.189477,0.043188,0.052704,-0.27328,0.281646717,18,
0.195607,0.040504,0.055144,-0.26962,0.2781661,19,
0.201769,0.033916,0.054412,-0.26474,0.272393518,20,
0.207977,0.025376,0.054412,-0.259128,0.265992345,21,
0.214219,0.025132,0.053924,-0.247416,0.254468254,22,
0.220378,0.025376,0.052704,-0.235948,0.243090748,23,
0.226539,0.02684,0.052216,-0.229848,0.237227737,24,
0.232929,0.031232,0.048312,-0.223016,0.230316355,25,
0.238735,0.03538,0.045384,-0.221796,0.229139515,26,
0.24503,0.031232,0.044896,-0.213988,0.220866369,27,
0.250804,0.045872,0.03904,-0.215696,0.223948937,28,
0.256568,0.054168,0.026596,-0.221308,0.229387773,29,
0.262443,0.063928,0.020252,-0.226188,0.235919359,30,
0.268227,0.0671,0.00976,-0.232044,0.241747979,31,
0.274119,0.123952,0.001952,-0.24156,0.271512693,32,
0.279904,0.063684,-0.00244,-0.254248,0.262113813,33,
0.285678,0.067832,-0.010004,-0.264008,0.272766355,34,
0.291461,0.070516,-0.011956,-0.279868,0.28886251,35,
0.297263,0.074176,-0.012688,-0.298656,0.307991024,36,
0.303109,0.078324,-0.01464,-0.373808,0.382205965,37,
0.308888,0.083692,-0.007076,-0.335256,0.345616849,38,
0.319396,0.089792,-0.001708,-0.357216,0.368332447,39,
0.325645,0.105408,0.002684,-0.411872,0.425154789,40,
0.331432,0.120292,0.000732,-0.44042,0.45655282,41,
0.337228,0.125416,-0.0061,-0.476288,0.492561308,42,
0.343066,0.134932,-0.01098,-0.492148,0.510428113,43,
0.348852,0.136396,-0.02806,-0.49654,0.515696814,44,
0.354703,0.136152,-0.047092,-0.499224,0.519595637,45,
0.360578,0.128588,-0.05856,-0.491172,0.511091069,46,
0.366364,0.120536,-0.064172,-0.472384,0.491725143,47,
0.372238,0.122244,-0.051728,-0.456524,0.475429852,48,
0.378003,0.122244,-0.035624,-0.42944,0.447918942,49,
0.383884,0.116144,-0.020008,-0.401136,0.418090707,50,
0.389689,0.110776,-0.002196,-0.37698,0.392925012,51,
0.395486,0.116876,0.011956,-0.341356,0.361008122,52,
0.402247,0.105652,0.024156,-0.3172,0.335203964,53,
0.408026,0.092476,0.033184,-0.286944,0.303298282,54,
0.41392,0.095648,0.034404,-0.281332,0.299131859,55,
0.419708,0.091012,0.030744,-0.283772,0.299591264,56,
0.42549,0.08296,0.023668,-0.298656,0.310866438,57,
0.431283,0.071736,0.030012,-0.371612,0.379660707,58,
0.437063,0.072956,0.032696,-0.329888,0.339437327,59,
0.442919,0.076372,0.022692,-0.352336,0.361231596,60,
0.448724,0.078324,0.001952,-0.364292,0.372621954,61,
0.454628,0.083448,-0.01342,-0.378932,0.388243642,62,
0.460565,0.0854,-0.023424,-0.38796,0.397938193,63,
0.466366,0.093452,-0.02562,-0.389424,0.401298782,64,
0.47222,0.091744,-0.02318,-0.38186,0.39340988,65,
0.478025,0.091256,-0.02928,-0.360144,0.372677712,66,
0.483907,0.088084,-0.02196,-0.341356,0.353220825,67,
0.489708,0.08906,-0.010004,-0.31964,0.331966103,68,
0.495491,0.091988,-0.008052,-0.295972,0.310042016,69,
0.501281,0.109312,-0.002928,-0.29036,0.310268619,70,
0.507058,0.112972,-0.005124,-0.281088,0.302984145,71,
0.512902,0.10858,-0.016104,-0.282796,0.30335216,72,
0.518669,0.096624,0.02806,-0.198128,0.222212208,73,
0.524543,0.097356,0.021228,-0.250588,0.269672328,74,
0.530335,0.0976,0.010492,-0.265716,0.283268132,75,
0.536106,0.102724,0.007076,-0.27084,0.289752645,76,
0.542005,0.107604,0.016592,-0.287676,0.307589656,77,
0.547792,0.113216,0.017568,-0.310124,0.330610636,78,
0.553696,0.123464,0.018788,-0.319396,0.342943367,79,
0.559459,0.132004,-0.000976,-0.337452,0.362353227,80,
0.565232,0.1403,-0.014884,-0.347212,0.374782332,81,
0.571026,0.141276,-0.03538,-0.3538,0.382603048,82,
0.576748,0.141032,-0.04148,-0.34892,0.378623536,83,
0.582784,0.141032,-0.035868,-0.33184,0.362345586,84,
0.588592,0.125416,-0.02318,-0.326228,0.350273027,85,
0.597254,0.118584,-0.015128,-0.327692,0.348816669,86,
0.605131,0.123952,0.004392,-0.310368,0.334232978,87,
0.610881,0.136152,0.016348,-0.30622,0.335522447,88,
0.616594,0.142252,0.01952,-0.297436,0.330279936,89,
0.622509,0.128832,0.020252,-0.299388,0.32655934,90,
0.628274,0.127368,0.032696,-0.311588,0.338199228,91,
0.634104,0.136152,0.036112,-0.305488,0.336399111,92,
0.639853,0.133468,0.043432,-0.308416,0.3388517,93,
0.645639,0.144692,0.044408,-0.307684,0.342895449,94,
0.651447,0.145424,0.020984,-0.3172,0.349577328,95,
0.657223,0.148596,0.008784,-0.323544,0.356144142,96,
0.663069,0.163968,0.001464,-0.321592,0.360983466,97,
0.668847,0.16226,-0.003904,-0.317932,0.356965412,98,
0.67472,0.16348,-0.005856,-0.31476,0.354730688,99,
0.680551,0.15616,-0.011712,-0.313296,0.35025348,100,
0.688508,0.138348,-0.013176,-0.368928,0.39423552,101,
0.698639,0.14884,0.060756,-0.33916,0.375332043,102,
0.704466,0.138836,-0.001708,-0.325984,0.354321775,103,
0.710208,0.13054,0.001464,-0.253272,0.284937784,104,
0.717839,0.118828,0.011224,-0.298656,0.321623193,105,
0.723687,0.122244,0.012688,-0.295728,0.320249326,106,
0.729396,0.12688,0.025132,-0.300608,0.327254215,107,
0.735165,0.117364,0.025132,-0.294264,0.31780061,108,
0.740999,0.10492,0.018056,-0.285724,0.304913807,109,
0.747536,0.101748,0.017324,-0.282796,0.301042113,110,
0.758712,0.095892,0.010736,-0.280844,0.296957724,111,
0.765612,0.093452,0.019276,-0.294508,0.309580042,112,
0.771352,0.092232,0.029768,-0.300364,0.31561275,113,
0.777102,0.078568,0.030744,-0.304756,0.316218822,114,
0.78298,0.06954,0.035624,-0.32086,0.33023631,115,
0.788768,0.076372,0.048312,-0.325252,0.337573096,116,
0.794551,0.076372,0.034404,-0.300608,0.31206007,117,
0.800296,0.077104,0.029768,-0.290604,0.302128856,118,
0.806062,0.08052,0.023912,-0.286212,0.29828269,119,
0.811843,0.081984,0.01342,-0.27694,0.289131867,120,
0.81762,0.078324,0.009516,-0.276208,0.287256092,121,
0.823496,0.076128,0.017812,-0.273524,0.284478678,122,
0.829291,0.069052,0.013908,-0.274012,0.282920815,123,
0.835054,0.070516,0.017812,-0.275964,0.285387286,124,
0.840926,0.069052,0.016348,-0.27328,0.282342689,125,
0.846713,0.06954,0.014884,-0.2684,0.277661494,126,
0.852589,0.070516,0.018544,-0.269864,0.279540632,127,
0.858391,0.068808,0.026596,-0.267668,0.277647342,128,
0.864838,0.12444,0.031476,-0.263032,0.292680517,129,
0.870617,0.064416,0.039528,-0.275964,0.286125869,130,
0.87639,0.052948,0.043432,-0.276208,0.284571061,131,
0.88227,0.047092,0.04148,-0.2806,0.287531923,132,
0.888055,0.046848,0.043432,-0.286456,0.293492953,133,
0.893945,0.04392,0.044896,-0.287432,0.29421382,134,
0.899726,0.043188,0.043676,-0.286944,0.293444467,135,
0.90551,0.046604,0.044652,-0.293532,0.300544121,136,
0.911308,0.040992,0.04148,-0.287432,0.293288406,137,
0.917087,0.039284,0.033916,-0.28182,0.286558964,138,
0.922921,0.03782,0.033672,-0.278648,0.283211694,139,
0.928699,0.038308,0.03416,-0.27328,0.278058208,140,
0.934502,0.040016,0.032696,-0.27206,0.276924091,141,
0.940238,0.04026,0.033184,-0.27572,0.280612836,142,
0.946023,0.035624,0.038552,-0.287188,0.291945669,143,
0.951845,0.036112,0.044408,-0.292068,0.297623695,144,
0.95763,0.032208,0.046116,-0.303292,0.308464063,145,
0.963513,0.028548,0.053436,-0.309148,0.31502838,146,
0.969327,0.027084,0.052704,-0.309636,0.315254988,147,
0.975025,0.02806,0.054168,-0.30866,0.314630786,148,
0.980786,0.030012,0.055144,-0.308416,0.314741179,149,
0.986544,0.028792,0.053924,-0.302072,0.308195182,150,
0.992415,0.02074,0.050752,-0.300364,0.305326785,151,
0.998193,0.019764,0.044408,-0.303048,0.30692145,152,
0.00406,0.016348,0.043676,-0.308904,0.312404435,153,
0.009838,0.013176,0.049532,-0.31476,0.31890576,154,
0.015598,0.013908,0.059536,-0.315736,0.321600979,155,
0.021353,0.00976,0.071004,-0.314272,0.322340993,156,
0.027141,0.009272,0.075884,-0.309148,0.318460103,157,
0.032968,0.0122,0.068808,-0.304756,0.312665317,158,
0.038755,0.01586,0.060268,-0.294996,0.301506901,159,
0.044613,0.021228,0.056852,-0.291336,0.297589386,160,
0.050415,0.019764,0.05124,-0.284016,0.289277102,161,
0.056184,0.02196,0.039528,-0.28182,0.285424625,162,
0.061937,0.027328,0.036112,-0.286944,0.290495706,163,
0.067726,0.030988,0.030256,-0.289384,0.292606871,164,
0.073617,0.040016,0.025132,-0.294996,0.298756653,165,
0.07941,0.050508,0.022448,-0.29524,0.300369153,166,
0.085186,0.122732,0.016836,-0.292068,0.317254332,167,
0.091017,0.077104,0.00854,-0.284992,0.295361471,168,
0.096774,0.089548,-0.000732,-0.276452,0.290594371,169,
0.102632,0.0915,-0.009516,-0.276452,0.291356333,170,
0.10841,0.090524,-0.02562,-0.279868,0.295257644,171,
0.114294,0.080276,-0.031232,-0.29402,0.306377927,172,
0.120082,0.071004,-0.045628,-0.37332,0.382741825,173,
0.125857,0.065636,-0.066124,-0.333792,0.346550959,174,
0.131634,0.061,-0.075396,-0.360632,0.37344477,175,
0.137452,0.058072,-0.086132,-0.375028,0.389149174,176,
0.143439,0.05612,-0.102236,-0.394304,0.4111901,177,
0.149273,0.059536,-0.104188,-0.412604,0.429699587,178,
0.157239,0.064416,-0.110044,-0.410164,0.429527193,179,
0.163121,0.062464,-0.106872,-0.40748,0.425867733,180,
0.168967,0.059536,-0.11224,-0.403088,0.422637302,181,
0.17477,0.06344,-0.117608,-0.407236,0.428599387,182,
0.180556,0.06954,-0.116144,-0.410652,0.432389067,183,
0.186332,0.071248,-0.119072,-0.416508,0.439014046,184,
0.192164,0.065392,-0.116144,-0.410408,0.431509292,185,
0.198056,0.05856,-0.108824,-0.3965,0.415312156,186,
0.20395,0.045384,-0.10126,-0.36844,0.384787381,187,
0.209755,0.041724,-0.087352,-0.350384,0.363510951,188,
0.215541,0.046116,-0.074664,-0.35014,0.360970107,189,
0.221324,0.049044,-0.077836,-0.345992,0.358014275,190,
0.227106,0.04514,-0.087596,-0.338672,0.352717171,191,
0.232948,0.044652,-0.089792,-0.33794,0.352505103,192,
0.238759,0.049044,-0.092964,-0.332816,0.34901878,193,
0.244481,0.051972,-0.093208,-0.33184,0.348577976,194,
0.250136,0.055876,-0.09272,-0.33916,0.35601774,195,
0.25576,0.05246,-0.0915,-0.343796,0.359610889,196,
0.26137,0.049776,-0.0854,-0.3477,0.361477662,197,
0.266992,0.045872,-0.080276,-0.353556,0.365445374,198,
0.272687,0.033672,-0.07442,-0.344284,0.353841225,199,
0.278319,0.03294,-0.064904,-0.325008,0.333058212,200,
0.284061,0.038796,-0.05734,-0.304756,0.312520759,201,
0.289703,0.04514,-0.046848,-0.292068,0.299225787,202,
0.295328,0.0427,-0.045628,-0.273036,0.280096165,203,
0.301024,0.04026,-0.049776,-0.264984,0.272607847,204,
0.306656,0.038796,-0.061,-0.266448,0.276080905,205,
0.312371,0.050508,-0.067588,-0.266692,0.279720966,206,
0.318001,0.053924,-0.072956,-0.262544,0.277776399,207,
0.323745,0.056364,-0.075884,-0.253272,0.270336805,208,
0.329374,0.058804,-0.086376,-0.24522,0.266555008,209,
0.334994,0.062952,-0.093452,-0.243268,0.268096159,210,
0.340668,0.063928,-0.094672,-0.239364,0.265225755,211,
0.34736,0.070028,-0.09272,-0.232776,0.260164535,212,
0.352988,0.0671,-0.091744,-0.227896,0.25466833,213,
0.358547,0.061732,-0.098576,-0.224968,0.253256132,214,
0.364336,0.067588,-0.116144,-0.234484,0.270259713,215,
0.37,0.066368,-0.121024,-0.238144,0.275252765,216,
0.375561,0.064416,-0.116876,-0.240584,0.275118305,217,
0.381324,0.12444,-0.145424,-0.251564,0.316097927,218,
0.386954,0.04758,-0.17812,-0.261812,0.320212608,219,
0.392652,0.00366,-0.087108,-0.243512,0.258648977,220,
0.398268,0.00122,-0.020984,-0.24034,0.241257398,221,
0.40402,-0.005612,-0.01098,-0.228628,0.228960296,222,
0.409647,-0.004636,-0.02196,-0.217892,0.219044876,223,
0.415268,0.005124,-0.103944,-0.2074,0.232046053,224,
0.420906,0.007564,-0.077592,-0.203008,0.217462596,225,
0.42654,0.005368,-0.08174,-0.190076,0.206976155,226,
0.432254,0.01342,-0.085156,-0.18544,0.204498495,227,
0.438696,0.008052,-0.085888,-0.180316,0.199888577,228,
0.444578,0.005124,-0.112728,-0.160552,0.196241693,229,
0.450192,-0.0061,-0.124928,-0.164456,0.206615564,230,
0.457124,0.007076,-0.069296,-0.177388,0.190574153,231,
0.462747,0.018544,-0.062952,-0.16958,0.181835669,232,
0.468304,0.0122,-0.06222,-0.174216,0.185395208,233,
0.474089,0.018056,-0.065148,-0.191052,0.202660178,234,
0.479707,0.027816,-0.081008,-0.199348,0.21696924,235,
0.485258,0.027084,-0.075884,-0.22936,0.243100667,236,
0.490916,0.02318,-0.07442,-0.253516,0.265228224,237,
0.496687,0.023424,-0.077592,-0.266448,0.278502673,238,
0.503808,0.018544,-0.079056,-0.27206,0.283919662,239,
0.509444,0.01952,-0.09028,-0.266204,0.281773097,240,
0.514986,0.03416,-0.102724,-0.26962,0.290540996,241,
0.520621,0.040016,-0.120292,-0.275476,0.303246553,242,
0.526264,0.047824,-0.135176,-0.282796,0.317069809,243,
0.531827,0.049776,-0.138836,-0.28914,0.324584388,244,
0.537385,0.032208,-0.138592,-0.290604,0.323567277,245,
0.543264,0.01952,-0.111752,-0.294752,0.315829513,246,
0.548895,0.011712,-0.079788,-0.296948,0.307703446,247,
0.554604,0.009516,-0.000488,-0.300852,0.301002854,248,
0.560245,0.013176,-0.04636,-0.36844,0.371578915,249,
0.565968,0.012688,-0.041724,-0.32452,0.327437182,250,
0.571592,0.016348,-0.045872,-0.340136,0.343604418,251,
0.577274,0.02318,-0.04758,-0.348432,0.352428755,252,
0.582983,0.03172,-0.052704,-0.368196,0.373299028,253,
0.588615,0.03538,-0.063196,-0.38796,0.394662439,254,
0.597026,0.033184,-0.064904,-0.435296,0.441357355,255,
0.603793,0.0305,-0.061488,-0.447008,0.452246809,256,
0.609373,0.038064,-0.062952,-0.449936,0.455910327,257,
0.614943,0.044164,-0.077836,-0.448228,0.457074657,258,
0.62072,0.049532,-0.104188,-0.434564,0.449615868,259,
0.626284,0.055388,-0.112972,-0.42212,0.440472244,260,
0.631886,0.06222,-0.107848,-0.410652,0.429112555,261,
0.637479,0.124196,-0.006344,-0.397476,0.416475766,262,
0.643233,0.013908,-0.176656,-0.400648,0.438086287,263,
0.648883,0.041968,-0.103456,-0.382348,0.398314511,264,
0.654574,0.078568,-0.043188,-0.367952,0.37871732,265,
0.660214,0.051728,-0.105164,-0.384056,0.401539866,266,
0.665835,0.063684,0.059536,-0.31232,0.324259109,267,
0.671453,0.000488,-0.05734,-0.34892,0.353600453,268,
0.677077,0.067344,-0.109556,-0.324032,0.348617941,269,
0.682774,0.025864,-0.021228,-0.338184,0.339835243,270,
0.689231,0.018788,-0.043188,-0.327692,0.331059268,271,
0.695835,0.019764,-0.094672,-0.33306,0.346817484,272,
0.705422,0.014884,-0.048556,-0.347456,0.351147961,273,
0.711045,0.030744,0.016104,-0.3172,0.319093047,274,
0.716613,0.020496,-0.039772,-0.324764,0.327831593,275,
0.722352,0.03782,-0.037576,-0.308416,0.312989995,276,
0.727985,0.049044,-0.03172,-0.300852,0.306469245,277,
0.733677,0.053192,-0.03416,-0.300608,0.307183112,278,
0.739286,0.061,-0.05002,-0.323544,0.333022102,279,
0.744914,0.063684,-0.08174,-0.341356,0.356736595,280,
0.753493,0.056608,-0.103944,-0.35136,0.370759586,281,
0.760765,0.071492,-0.096868,-0.354044,0.373954101,282,
0.766351,0.072712,-0.105652,-0.35136,0.374036402,283,
0.771962,0.083692,-0.119804,-0.35502,0.383922583,284,
0.777599,0.084912,-0.130296,-0.358436,0.390721719,285,
0.783256,0.08052,-0.130296,-0.373808,0.403971458,286,
0.788803,0.083692,-0.11102,-0.380884,0.405465674,287,
0.794744,0.08174,-0.082228,-0.390644,0.40748694,288,
0.800366,0.070028,-0.07564,-0.39894,0.412041811,289,
0.805989,0.07076,-0.088572,-0.404308,0.419901102,290,
0.811609,0.065636,-0.095648,-0.399672,0.416166231,291,
0.821675,0.000732,-0.118828,-0.323788,0.344904767,292,
0.827336,0.044896,-0.122488,-0.35868,0.381667792,293,
0.833014,0.03172,-0.109556,-0.350872,0.368944218,294,
0.838633,0.014396,-0.104188,-0.346236,0.361858746,295,
0.844371,0.001708,-0.11224,-0.351848,0.36932066,296,
0.850059,0.000732,-0.102968,-0.342088,0.357249415,297,
0.85596,0.005612,-0.077592,-0.338916,0.347729878,298,
0.861709,0.007808,-0.066124,-0.352092,0.358332422,299,
0.867351,0.003416,-0.073444,-0.36356,0.370919889,300,
0.873033,0.006588,-0.0915,-0.380152,0.391064183,301,
0.878661,0.009272,-0.11346,-0.382348,0.398935001,302,
0.884372,0.01586,-0.121512,-0.384056,0.403132381,303,
0.890061,0.017812,-0.133468,-0.386252,0.409049608,304,
0.895675,0.017324,-0.149084,-0.38796,0.415979713,305,
0.901312,0.007808,-0.164212,-0.395524,0.428329056,306,
0.906927,0.000732,-0.175924,-0.407724,0.444059286,307,
0.91263,0.00122,-0.175436,-0.422364,0.457351754,308,
0.918248,0.001708,-0.1769,-0.438468,0.4728115,309,
0.923997,0.058804,-0.192516,-0.448716,0.491799115,310,
0.929622,-0.001464,-0.206912,-0.450424,0.495677818,311,
0.935249,0.000976,-0.217892,-0.441396,0.492248215,312,
0.941046,0.004636,-0.214476,-0.429196,0.479823565,313,
0.946673,0.005612,-0.20862,-0.406992,0.457379806,314,
0.952378,0.005856,-0.188368,-0.397476,0.439890858,315,
0.958004,0.008784,-0.175192,-0.39162,0.429110265,316,
0.963737,0.008052,-0.162748,-0.393328,0.425744832,317,
0.969377,0.004392,-0.165432,-0.399672,0.432579176,318,
0.975016,0.011468,-0.165432,-0.407968,0.440382959,319,
0.980637,0.009028,-0.165432,-0.401868,0.434680504,320,
0.986263,0.009028,-0.164944,-0.384056,0.418075399,321,
0.991902,0.020008,-0.162748,-0.366976,0.401943548,322,
0.997531,0.033428,-0.17324,-0.345016,0.387512024,323,
0.003274,0.037576,-0.183244,-0.342576,0.390318633,324,
0.008891,0.04148,-0.200568,-0.347212,0.403118203,325,
0.014596,0.04392,-0.208864,-0.349408,0.409437526,326,
0.020215,0.051484,-0.205936,-0.353556,0.412385843,327,
0.025838,0.049044,-0.193736,-0.362096,0.413584894,328,
0.031461,0.044408,-0.177388,-0.372832,0.415261692,329,
0.037088,0.039284,-0.152256,-0.369904,0.40193792,330,
0.042774,0.03538,-0.137372,-0.356972,0.384124745,331,
0.048404,0.048068,-0.120536,-0.364048,0.386484678,332,
0.054111,0.05856,-0.135176,-0.358924,0.387979719,333,
0.059754,0.055876,-0.135664,-0.36112,0.389787766,334,
0.065388,0.059292,-0.104188,-0.36478,0.383972823,335,
0.071076,0.058316,-0.088084,-0.362584,0.377659508,336,
0.076708,0.05856,-0.070516,-0.354288,0.36595323,337,
0.08242,0.06466,-0.04392,-0.345992,0.354711638,338,
0.088053,0.076372,-0.032452,-0.340868,0.350823044,339,
0.094129,0.0793,-0.020984,-0.32696,0.337092954,340,
0.100549,0.071004,-0.010492,-0.256932,0.266769006,341,
0.106116,0.065392,0.003416,-0.289628,0.296937975,342,
0.111713,0.063684,0.026596,-0.296948,0.304862451,343,
0.117331,0.058804,0.040504,-0.310368,0.318475713,344,
0.122956,0.056364,0.049288,-0.294752,0.304113382,345,
0.128483,0.03416,0.06466,-0.287188,0.29635244,346,
0.13442,0.019276,0.08052,-0.32208,0.332551591,347,
0.140064,0.013908,0.111752,-0.329156,0.347887359,348,
0.145891,0.001952,0.125172,-0.3172,0.341009794,349,
0.151557,0.005856,0.196176,-0.313052,0.369487308,350,
0.157186,0.021716,0.104676,-0.312076,0.329878886,351,
0.162874,0.047824,0.000732,-0.327692,0.331164185,352,
0.168489,0.018544,-0.035624,-0.33184,0.334261477,353,
0.174244,0.017812,-0.0549,-0.332084,0.337062398,354,
0.179883,0.03294,-0.049288,-0.330864,0.336132916,355,
0.185524,0.062708,-0.073444,-0.319884,0.334143813,356,
0.192605,0.073688,-0.081496,-0.327204,0.345157902,357,
0.198239,0.077104,-0.077836,-0.329644,0.347373914,358,
0.204501,0.070272,-0.103456,-0.3111,0.335297641,359,
0.21016,0.05978,-0.101016,-0.29036,0.313188139,360,
0.215799,0.058316,-0.087352,-0.267912,0.287763736,361,
0.221383,0.050752,-0.079056,-0.242048,0.259639849,362,
0.226937,0.04514,-0.069296,-0.235948,0.250022027,363,
0.232856,0.044408,-0.064904,-0.261568,0.273134433,364,
0.238497,0.034404,-0.050264,-0.276452,0.283082697,365,
0.244237,0.031476,-0.018544,-0.279624,0.282000354,366,
0.24987,0.001952,0.010492,-0.271572,0.27178161,367,
0.256805,0.033916,0.0366,-0.256444,0.261253479,368,
0.26246,0.023668,0.033184,-0.282308,0.285235269,369,
0.268009,0.040504,0.00732,-0.258396,0.261653682,370,
0.27387,0.027816,-0.05002,-0.2379,0.244687842,371,
0.279558,0.029036,-0.02684,-0.228872,0.232262496,372,
0.285101,0.051972,-0.030988,-0.254736,0.261823938,373,
0.290798,0.079788,-0.038064,-0.25986,0.27448536,374,
0.296423,0.102968,-0.062708,-0.24522,0.273253638,375,
0.30223,0.100772,-0.062464,-0.222284,0.251926426,376,
0.307865,0.105652,-0.055876,-0.217892,0.248518402,377,
0.313621,0.105408,-0.039528,-0.215452,0.243090258,378,
0.319272,0.111508,-0.02928,-0.245464,0.271189837,379,
0.32484,0.144692,-0.029768,-0.207644,0.254829236,380,
0.330339,0.142496,-0.021228,-0.26596,0.302473899,381,
0.335826,0.161772,-0.050508,-0.24278,0.29608,382,
0.341324,0.171532,-0.123708,-0.285968,0.355674842,383,
0.346758,0.236436,-0.068808,-0.32696,0.409315727,384,
0.352369,0.190564,-0.076616,-0.338672,0.396085058,385,
0.357871,0.182268,-0.084912,-0.355508,0.408433115,386,
0.363471,0.180804,-0.09516,-0.362584,0.416188262,387,
0.369018,0.183732,-0.080764,-0.401624,0.448978963,388,
0.374502,0.193004,-0.058316,-0.446032,0.489485286,389,
0.380057,0.204472,-0.072224,-0.488244,0.534235256,390,
0.385556,0.215208,-0.085644,-0.503128,0.553883708,391,
0.391094,0.213012,-0.090524,-0.513376,0.563137305,392,
0.396589,0.211792,-0.09272,-0.505812,0.55614623,393,
0.402154,0.201788,-0.104432,-0.493612,0.54339419,394,
0.407637,0.204472,-0.10492,-0.491416,0.542500406,395,
0.413223,0.213012,-0.11102,-0.49166,0.547201159,396,
0.418711,0.223504,-0.117608,-0.489708,0.550998734,397,
0.424286,0.231556,-0.126636,-0.485316,0.552436854,398,
0.429804,0.234484,-0.14274,-0.473604,0.547410452,399,
0.435298,0.2318,-0.15372,-0.459208,0.536873417,400,
0.440799,0.22814,-0.162504,-0.447496,0.527928101,401,
0.446284,0.229848,-0.192028,-0.43554,0.528582962,402,
0.451774,0.212768,-0.183732,-0.422608,0.507567918,403,
0.457258,0.216916,-0.199348,-0.400648,0.497303726,404,
0.462818,0.208864,-0.193736,-0.406748,0.496590116,405,
0.468307,0.209108,-0.195444,-0.40992,0.499958918,406,
0.473911,0.203984,-0.1952,-0.405772,0.494331294,407,
0.479411,0.20008,-0.206424,-0.396744,0.489947625,408,
0.484892,0.190076,-0.21716,-0.377468,0.47515202,409,
0.49039,0.186416,-0.226676,-0.364536,0.467995117,410,
0.495867,0.171776,-0.223016,-0.352092,0.450790314,411,
0.501364,0.159576,-0.21838,-0.363804,0.453329543,412,
0.506854,0.162992,-0.221796,-0.350628,0.445757616,413,
0.512415,0.146644,-0.21838,-0.333792,0.424983984,414,
0.517913,0.129076,-0.209596,-0.320616,0.404209991,415,
0.52352,0.118828,-0.199592,-0.25132,0.342226245,416,
0.529064,0.114436,-0.19642,-0.292556,0.370493492,417,
0.534561,0.09028,-0.182512,-0.282796,0.3484748,418,
0.540103,0.077348,-0.159576,-0.273036,0.32557007,419,
0.545605,0.058072,-0.139324,-0.268156,0.307719311,420,
0.551096,0.054412,-0.107116,-0.268644,0.294285749,421,
0.556572,0.043676,-0.083204,-0.264984,0.281153017,422,
0.562131,0.033672,-0.054656,-0.253272,0.261281052,423,
0.567623,0.030744,-0.03904,-0.231312,0.236589426,424,
0.57314,0.025376,-0.024888,-0.218868,0.221735327,425,
0.578569,0.030744,-0.020252,-0.193492,0.196963172,426,
0.584273,0.03172,-0.02074,-0.178364,0.182345887,427,
0.589774,0.024644,-0.019032,-0.155672,0.158755521,428,
0.595252,0.021472,-0.01342,-0.14152,0.143767359,429,
0.600736,0.013908,-0.004392,-0.126148,0.126988346,430,
0.606249,0.011468,-0.000488,-0.118096,0.118652511,431,
0.611734,0.006832,-0.000732,-0.104188,0.104414326,432,
0.617233,0.002928,-0.004636,-0.098576,0.098728382,433,
0.622805,0.002196,-0.010492,-0.096624,0.097216778,434,
0.628304,-0.004148,-0.005612,-0.100528,0.100769932,435,
0.633905,-0.0061,0.003172,-0.099796,0.100032561,436,
0.639407,-0.013908,0.007808,-0.11224,0.11336761,437,
0.644901,-0.013908,0.002684,-0.122,0.122819527,438,
0.65052,-0.017812,0.000488,-0.136152,0.137313046,439,
0.655934,-0.022204,0.002684,-0.149084,0.150752315,440,
0.661405,-0.0183,0.006832,-0.159576,0.160767117,441,
0.666892,-0.018544,0.01952,-0.159576,0.161831425,442,
0.672456,-0.018056,0.030744,-0.159332,0.163272468,443,
0.677954,-0.013664,0.050264,-0.158112,0.166470956,444,
0.68355,0,0.0549,-0.148352,0.158184468,445,
0.689077,0.011468,0.05612,-0.138104,0.149511485,446,
0.694565,0.03172,0.051972,-0.115656,0.130704084,447,
0.700073,0.05368,0.035868,-0.104676,0.12298423,448,
0.705562,0.07076,0.015372,-0.094428,0.118995475,449,
0.711079,0.097356,0.002684,-0.089792,0.132468856,450,
0.716565,0.116144,-0.010004,-0.089792,0.147146566,451,
0.722119,0.149572,-0.020008,-0.103212,0.182824561,452,
0.727613,0.170068,-0.037332,-0.124928,0.214298409,453,
0.733175,0.199836,-0.048556,-0.160552,0.260900473,454,
0.738663,0.215696,-0.067832,-0.188368,0.294293133,455,
0.744259,0.243024,-0.084912,-0.22448,0.341558169,456,
0.749767,0.250832,-0.105652,-0.265472,0.38020313,457,
0.755249,0.28182,-0.183244,-0.310124,0.457359565,458,
0.760751,0.288408,-0.144692,-0.339892,0.46865928,459,
0.766243,0.296216,-0.16714,-0.394548,0.520910571,460,
0.77174,0.29524,-0.19154,-0.492148,0.605032134,461,
0.77722,0.293288,-0.193248,-0.46726,0.584546446,462,
0.782784,0.291092,-0.200324,-0.551196,0.654737572,463,
0.788276,0.286212,-0.21228,-0.524844,0.634382638,464,
0.793861,0.281088,-0.222772,-0.565836,0.669931494,465,
0.799349,0.269376,-0.228384,-0.606584,0.701902294,466,
0.804854,0.266448,-0.230824,-0.638792,0.729609125,467,
0.810364,0.255468,-0.235704,-0.6466,0.734106147,468,
0.815854,0.247416,-0.249124,-0.641232,0.731064923,469,
0.821353,0.240096,-0.25742,-0.623664,0.716147981,470,
0.82684,0.214232,-0.232776,-0.576816,0.657872871,471,
0.832425,0.192272,-0.16348,-0.530456,0.587433231,472,
0.837916,0.192028,-0.120536,-0.492636,0.542304258,473,
0.843539,0.195444,-0.095648,-0.471896,0.519646738,474,
0.849087,0.185196,-0.105896,-0.455304,0.502805383,475,
0.854568,0.187392,-0.122,-0.44774,0.500470648,476,
0.860098,0.18666,-0.18544,-0.424072,0.499066138,477,
0.865581,0.18178,-0.11834,-0.395524,0.451095953,478,
0.871085,0.166652,-0.116632,-0.346236,0.401566035,479,
0.876566,0.150304,-0.101016,-0.30622,0.355761455,480,
0.882103,0.140544,-0.073688,-0.245708,0.292497792,481,
0.887601,0.13054,-0.050752,-0.207888,0.250666866,482,
0.893189,0.12932,-0.024156,-0.162504,0.209080666,483,
0.898693,0.122244,-0.016836,-0.132736,0.181234357,484,
0.904264,0.112972,0.005612,-0.106628,0.155446768,485,
0.90977,0.100528,0.022692,-0.078324,0.129442862,486,
0.915252,0.094916,0.045872,-0.060268,0.12143113,487,
0.920746,0.078812,0.060024,-0.040748,0.107119613,488,
0.92622,0.003904,0.084424,-0.038552,0.092891925,489,
0.931702,0.051484,0.096136,-0.047092,0.118787159,490,
0.937175,0.042212,0.09638,-0.053436,0.118010014,491,
0.942715,0.03538,0.088328,-0.062464,0.113821489,492,
0.948193,0.024644,0.076128,-0.07076,0.106816556,493,
0.953777,0.016348,0.069296,-0.084424,0.110438238,494,
0.959272,0.009516,0.06222,-0.091988,0.11146154,495,
0.964748,0.004636,0.062952,-0.085888,0.106588908,496,
0.970243,-0.001708,0.064904,-0.07808,0.101547688,497,
0.975751,-0.006588,0.067832,-0.067588,0.095982914,498,
0.981253,-0.012932,0.078812,-0.000244,0.07986631,499,
0.986727,-0.014396,0.070516,-0.055876,0.091114645,500,
0.992435,-0.012444,0.05978,-0.052216,0.080343091,501,
0.997934,-0.009272,0.047824,-0.049776,0.069647363,502,
0.003567,-0.00732,0.03904,-0.063196,0.074642069,503,
0.009062,-0.008296,0.028792,-0.076616,0.082266727,504,
0.014567,-0.007808,0.019764,-0.106872,0.108964237,505,
0.020072,-0.010736,0.004392,-0.1281,0.128624109,506,
0.025577,-0.01098,-0.005856,-0.160552,0.16103353,507,
0.031083,-0.008296,-0.016104,-0.178852,0.179767072,508,
0.036585,-0.007808,-0.022692,-0.202276,0.203694555,509,
0.042155,-0.008296,-0.031964,-0.22082,0.223275599,510,
0.047621,-0.008052,-0.036844,-0.249612,0.252444975,511,
0.053292,-0.00244,-0.029036,-0.266692,0.268279082,512,
0.058793,0.001464,-0.019276,-0.261324,0.262038052,513,
0.064384,0.017324,-0.016836,-0.250344,0.251506839,514,
0.069896,0.026596,-0.02684,-0.242048,0.244979524,515,
0.075381,0.044896,-0.038552,-0.23424,0.241599431,516,
0.080888,0.057828,-0.048312,-0.234484,0.246294282,517,
0.086359,0.072956,-0.050508,-0.232288,0.248659106,518,
0.091871,0.081496,-0.054656,-0.238144,0.257568323,519,
0.097363,0.099796,-0.121512,-0.252052,0.297076789,520,
0.102909,0.110532,-0.06954,-0.258152,0.289301901,521,
0.108413,0.127368,-0.07076,-0.286944,0.321817408,522,
0.114024,0.134932,-0.07564,-0.371368,0.402296216,523,
0.119583,0.147864,-0.075884,-0.33916,0.377692533,524,
0.12508,0.161772,-0.074664,-0.35868,0.400494988,525,
0.130576,0.169092,-0.080032,-0.388936,0.431588273,526,
0.136057,0.185196,-0.083936,-0.412848,0.460202435,527,
0.141595,0.194224,-0.09516,-0.424804,0.47669364,528,
0.147376,0.207156,-0.101748,-0.435052,0.492479955,529,
0.152935,0.21106,-0.113948,-0.4392,0.500426928,530,
0.158409,0.221796,-0.118096,-0.430904,0.498816989,531,
0.164002,0.224724,-0.132492,-0.426512,0.499967491,532,
0.169548,0.232776,-0.143472,-0.413824,0.49600321,533,
0.175057,0.234484,-0.160064,-0.398696,0.489450437,534,
0.180562,0.236192,-0.169336,-0.381616,0.479679177,535,
0.186053,0.232776,-0.181048,-0.367464,0.471161157,536,
0.191562,0.235948,-0.18056,-0.351116,0.459951973,537,
0.19706,0.230824,-0.181536,-0.325984,0.438748911,538,
0.202608,0.228872,-0.177632,-0.314272,0.427437024,539,
0.208117,0.298656,-0.169092,-0.232044,0.41428484,540,
0.213734,0.630984,-0.061976,-0.244,0.679351038,541,
0.219236,0.871324,0.05246,-0.721996,1.132799977,542,
0.224707,0.378688,0.012932,-0.750544,0.840766397,543,
0.230208,0.033916,-0.2501,-0.347944,0.429843381,544,
0.235712,-0.11468,-0.387472,-0.133956,0.425711479,545,
0.241216,0.098088,-0.188124,-0.143716,0.256254139,546,
0.246712,0.33916,-0.122488,-0.104188,0.375350443,547,
0.252295,0.385032,-0.018544,-0.078568,0.393403675,548,
0.257789,0.25986,-0.130052,-0.104676,0.308865355,549,
0.263396,0.266448,-0.107116,-0.114436,0.30913423,550,
0.268873,0.228384,-0.104188,-0.149084,0.291959637,551,
0.274452,0.228872,-0.092232,-0.205204,0.320932728,552,
0.279924,0.214964,-0.095892,-0.264496,0.35406628,553,
0.285424,0.2135,-0.086864,-0.30012,0.378417255,554,
0.290923,0.194224,-0.061488,-0.318908,0.378425751,555,
0.296419,0.191784,-0.0549,-0.333792,0.388860144,556,
0.301913,0.181536,-0.025864,-0.357216,0.401531489,557,
0.307403,0.169092,-0.057584,-0.356484,0.398734077,558,
0.312948,0.133712,-0.0854,-0.343552,0.378417806,559,
0.31844,0.0854,-0.086864,-0.344772,0.365658647,560,
0.328854,0.079544,-0.065392,-0.415044,0.427627038,561,
0.33445,0.266692,-0.033184,-0.461648,0.534176634,562,
0.340065,0.203252,-0.022448,-0.467748,0.510493369,563,
0.345557,0.03782,-0.027084,-0.460184,0.462529144,564,
0.351117,0.017324,-0.016348,-0.42212,0.422791524,565,
0.356622,0.033428,-0.055876,-0.413336,0.418433038,566,
0.362216,0.07198,-0.072224,-0.327692,0.343190142,567,
0.36772,0.092964,-0.112972,-0.340136,0.370266764,568,
0.373322,0.1037,-0.052704,-0.29646,0.318464964,569,
0.378794,0.101992,-0.073444,-0.232288,0.264110023,570,
0.384384,0.1281,-0.087108,-0.207888,0.259258238,571,
0.389894,0.135664,-0.057096,-0.186904,0.237902878,572,
0.395397,0.13664,-0.029524,-0.187392,0.233790329,573,
0.400906,0.13786,-0.028304,-0.1891,0.235722943,574,
0.406407,0.139812,-0.067588,-0.189344,0.244880958,575,
0.411934,0.142252,-0.065148,-0.176412,0.235798828,576,
0.417438,0.129564,-0.008296,-0.184464,0.225571765,577,
0.423011,0.125416,-0.012932,-0.20618,0.241674579,578,
0.428508,0.1403,-0.05246,-0.210816,0.258610764,579,
0.434117,0.12688,-0.054412,-0.205204,0.247321414,580,
0.439622,0.138104,-0.053192,-0.225212,0.269485711,581,
0.445117,0.156892,-0.051972,-0.232044,0.284887006,582,
0.450629,0.155428,-0.061,-0.247416,0.29848541,583,
0.456125,0.151768,-0.067588,-0.248636,0.299034319,584,
0.461635,0.163236,-0.066612,-0.249612,0.305596631,585,
0.467138,0.171532,-0.07198,-0.248392,0.310327139,586,
0.472702,0.177876,-0.077592,-0.241072,0.309477138,587,
0.478186,0.18422,-0.082228,-0.233508,0.308584573,588,
0.483789,0.191784,-0.08906,-0.230824,0.313037546,589,
0.489297,0.194712,-0.080764,-0.234484,0.315306728,590,
0.494789,0.200324,-0.07442,-0.234728,0.317435466,591,
0.500311,0.199836,-0.074908,-0.228628,0.312756131,592,
0.505808,0.196176,-0.076128,-0.228872,0.310906558,593,
0.511312,0.203984,-0.083204,-0.23668,0.323341615,594,
0.516798,0.21106,-0.096136,-0.238388,0.332591781,595,
0.522378,0.217648,-0.112484,-0.242292,0.344570335,596,
0.527888,0.22204,-0.131272,-0.246684,0.356913288,597,
0.533514,0.232288,-0.1342,-0.247172,0.364775756,598,
0.539068,0.23058,-0.12688,-0.251564,0.364074329,599,
0.544569,0.228628,-0.106628,-0.259616,0.361995525,600,
0.550091,0.227652,-0.09516,-0.283284,0.375673639,601,
0.55559,0.21838,-0.08906,-0.303536,0.384389921,602,
0.5611,0.215208,-0.094184,-0.32086,0.397663487,603,
0.566603,0.21594,-0.094428,-0.32696,0.403050335,604,
0.572159,0.22082,-0.095404,-0.327204,0.406110642,605,
0.57765,0.216916,-0.083448,-0.326472,0.400749406,606,
0.583237,0.219112,-0.085888,-0.322568,0.399295544,607,
0.588746,0.221064,-0.090768,-0.31232,0.393258063,608,
0.594342,0.22204,-0.092232,-0.288896,0.375858221,609,
0.599861,0.224724,-0.08906,-0.277184,0.367781905,610,
0.60536,0.23058,-0.094672,-0.258396,0.359024257,611,
0.610887,0.227652,-0.107604,-0.188368,0.314462331,612,
0.616383,0.224724,-0.097112,-0.241316,0.343751405,613,
0.621895,0.223016,-0.101992,-0.240096,0.343197601,614,
0.627385,0.225944,-0.100528,-0.241072,0.34535819,615,
0.632952,0.227164,-0.102968,-0.244,0.348915308,616,
0.638455,0.229848,-0.101748,-0.243024,0.34963327,617,
0.644067,0.22082,-0.103944,-0.24644,0.346840743,618,
0.64958,0.227408,-0.0915,-0.247904,0.348630236,619,
0.655081,0.231312,-0.087108,-0.249124,0.350935624,620,
0.66059,0.227896,-0.077104,-0.256444,0.351632107,621,
0.666081,0.226676,-0.07442,-0.26474,0.356381275,622,
0.671606,0.229848,-0.071736,-0.271572,0.362942844,623,
0.677102,0.232288,-0.066368,-0.26718,0.360204912,624,
0.682763,0.228384,-0.063684,-0.259128,0.351229588,625,
0.688265,0.226432,-0.061488,-0.252784,0.344894151,626,
0.693796,0.221552,-0.055144,-0.2501,0.338638686,627,
0.699273,0.219356,-0.060268,-0.252052,0.339528345,628,
0.704761,0.21838,-0.064172,-0.25498,0.341793315,629,
0.710272,0.215208,-0.07198,-0.25742,0.343162731,630,
0.715775,0.209352,-0.071492,-0.258152,0.339973265,631,
0.721283,0.204716,-0.065636,-0.261568,0.338577235,632,
0.726773,0.195932,-0.061732,-0.266204,0.336251034,633,
0.732338,0.197884,-0.053924,-0.26718,0.336824921,634,
0.737827,0.19398,-0.055876,-0.282064,0.346857994,635,
0.743452,0.194712,-0.088084,-0.274256,0.347689384,636,
0.749024,0.188856,-0.106384,-0.248148,0.329486834,637,
0.754481,0.201788,-0.067588,-0.260348,0.336255284,638,
0.759915,0.194468,-0.036112,-0.254004,0.321931532,639,
0.765415,0.182512,-0.053924,-0.249124,0.313498318,640,
0.77091,0.181536,-0.080032,-0.245708,0.315805101,641,
0.776427,0.18788,-0.085888,-0.240828,0.317291299,642,
0.781917,0.19642,-0.059048,-0.244976,0.319500741,643,
0.78742,0.190564,-0.035136,-0.18788,0.269903818,644,
0.792987,0.178852,-0.0549,-0.244,0.307470402,645,
0.798473,0.18422,-0.06344,-0.31232,0.368110614,646,
0.804065,0.192272,-0.052216,-0.257176,0.32532219,647,
0.809576,0.194956,-0.040504,-0.25254,0.321597369,648,
0.815063,0.19154,-0.034404,-0.257908,0.323090921,649,
0.82057,0.190564,-0.035624,-0.247416,0.314322103,650,
0.826077,0.18666,-0.030744,-0.244488,0.309130282,651,
0.831579,0.186904,-0.008784,-0.244244,0.307677421,652,
0.837078,0.185928,0.009272,-0.251076,0.312560952,653,
0.842632,0.182512,0.008052,-0.263764,0.320853413,654,
0.848121,0.183,-0.004148,-0.272548,0.32831177,655,
0.853721,0.186904,-0.007564,-0.26962,0.328154329,656,
0.859215,0.249612,0.000488,-0.266936,0.365460281,657,
0.864725,0.189344,-0.058316,-0.263032,0.32929886,658,
0.870228,0.184464,-0.01464,-0.243268,0.305647864,659,
0.875721,0.189832,-0.008052,-0.24278,0.308290693,660,
0.881218,0.197884,0.017812,-0.245464,0.315797277,661,
0.886705,0.191784,0.015616,-0.240828,0.308258151,662,
0.892301,0.184708,-0.001464,-0.2379,0.301190303,663,
0.897818,0.191296,-0.020984,-0.247904,0.313832569,664,
0.903432,0.204472,-0.022692,-0.259128,0.33086409,665,
0.90899,0.199348,-0.024644,-0.25986,0.328442037,666,
0.914495,0.19154,-0.029768,-0.265716,0.328905303,667,
0.920049,0.190076,-0.043432,-0.271328,0.334116908,668,
0.925555,0.192028,-0.045628,-0.28792,0.349076773,669,
0.931105,0.191784,-0.041236,-0.292556,0.35223646,670,
0.936601,0.185928,-0.036844,-0.301096,0.355788565,671,
0.942184,0.190076,-0.044652,-0.304268,0.361526905,672,
0.947694,0.183244,-0.037088,-0.310856,0.362746931,673,
0.953276,0.193736,-0.036112,-0.299388,0.358428359,674,
0.958798,0.19154,-0.029036,-0.301828,0.358651366,675,
0.964374,0.190564,-0.0183,-0.302316,0.35783305,676,
0.969892,0.186172,-0.019032,-0.29768,0.351618562,677,
0.975382,0.188856,-0.020008,-0.293532,0.349611132,678,
0.980887,0.19398,-0.024156,-0.285236,0.345790874,679,
0.986379,0.1891,-0.029524,-0.273768,0.33403502,680,
0.991884,0.19154,-0.033428,-0.269132,0.332019632,681,
0.997372,0.1891,-0.041236,-0.270108,0.332291362,682,
0.002948,0.124928,-0.042944,-0.272304,0.302656011,683,
0.008441,0.186416,-0.043188,-0.2745,0.334613775,684,
0.013985,0.180804,-0.032452,-0.274744,0.330495816,685,
0.019418,0.185684,-0.018056,-0.282308,0.338381994,686,
0.024928,0.127368,-0.0488,-0.283284,0.314410356,687,
0.030549,0.175436,-0.047824,-0.276208,0.330689861,688,
0.036042,0.178608,-0.04514,-0.274988,0.330993712,689,
0.0416,0.176656,-0.01952,-0.280844,0.332357827,690,
0.047082,0.168604,-0.012688,-0.279624,0.326768841,691,
0.052629,0.163968,-0.021716,-0.276452,0.322153376,692,
0.058131,0.160308,-0.025132,-0.282064,0.325408009,693,
0.063759,0.160552,-0.016592,-0.284748,0.32731279,694,
0.069258,0.155916,-0.012932,-0.281576,0.322121219,695,
0.07476,0.150792,-0.016592,-0.28426,0.322206873,696,
0.080257,0.145668,-0.018544,-0.28914,0.324291514,697,
0.085756,0.145424,-0.011224,-0.291824,0.326244333,698,
0.09125,0.140788,-0.008052,-0.294508,0.326528801,699,
0.096757,0.137372,-0.008784,-0.29524,0.325752794,700,
0.10236,0.134444,-0.006344,-0.293044,0.322475149,701,
0.107862,0.134688,-0.002928,-0.296704,0.325856861,702,
0.113482,0.133224,-0.004392,-0.29524,0.323936076,703,
0.119041,0.135664,-0.002196,-0.291092,0.321160545,704,
0.124552,0.136396,0.000976,-0.284748,0.315731286,705,
0.130058,0.138348,0.011468,-0.282064,0.314375228,706,
0.135551,0.136884,0.019276,-0.276452,0.309086561,707,
0.141088,0.13786,0.024156,-0.275476,0.308991777,708,
0.146805,0.138348,0.026596,-0.275476,0.309409992,709,
0.152391,0.143228,0.029036,-0.275476,0.311840305,710,
0.157896,0.140544,0.027816,-0.2745,0.309639461,711,
0.163504,0.141764,0.017568,-0.272548,0.307714281,712,
0.169045,0.144692,0.016592,-0.2684,0.305368023,713,
0.174555,0.140544,0.017568,-0.267668,0.302832311,714,
0.1801,0.139568,0.017324,-0.26962,0.30409586,715,
0.185599,0.140056,0.01464,-0.26962,0.304179153,716,
0.191096,0.13786,0.007808,-0.272548,0.305530288,717,
0.196582,0.136396,0.00488,-0.27572,0.307651104,718,
0.202146,0.134932,0.001708,-0.28182,0.312461316,719,
0.207652,0.135176,-0.001708,-0.283772,0.31432788,720,
0.213265,0.133224,-0.005856,-0.288164,0.317523885,721,
0.218768,0.132736,-0.00976,-0.294508,0.323185806,722,
0.224339,0.132248,-0.010004,-0.295484,0.323883324,723,
0.22985,0.13298,-0.002684,-0.293288,0.322038406,724,
0.235325,0.129076,-0.000244,-0.287432,0.315083843,725,
0.240813,0.132736,0.000976,-0.283772,0.313283173,726,
0.246609,0.128588,0.008296,-0.284748,0.31254619,727,
0.252175,0.12932,0.005124,-0.285236,0.31322435,728,
0.25767,0.127612,0.00366,-0.284992,0.312279776,729,
0.26325,0.12688,-0.061976,-0.288652,0.321340219,730,
0.268746,0.124196,-0.007808,-0.29524,0.320393928,731,
0.274319,0.127368,-0.007564,-0.301584,0.327464091,732,
0.279837,0.127124,-0.005612,-0.30134,0.327105184,733,
0.285316,0.122244,0.061,-0.298168,0.327976755,734,
0.290815,0.120536,0.00244,-0.303536,0.32660218,735,
0.296315,0.121756,-0.000244,-0.306464,0.329764714,736,
0.301832,0.123464,-0.001464,-0.3111,0.334706906,737,
0.307336,0.123464,-0.011956,-0.31232,0.336050722,738,
0.312896,0.123952,-0.014396,-0.305244,0.329765436,739,
0.318414,0.125172,-0.006344,-0.304024,0.328844748,740,
0.323995,0.122732,0.003904,-0.302804,0.326754721,741,
0.329565,0.122,-0.000976,-0.304756,0.328269968,742,
0.335058,0.12566,0.00244,-0.300852,0.326049559,743,
0.340571,0.122,-0.000488,-0.30134,0.325100037,744,
0.346059,0.124684,0.061488,-0.295728,0.326775036,745,
0.351548,0.119072,0,-0.295484,0.318573281,746,
0.357058,0.123952,0.002684,-0.307684,0.3317239,747,
0.362606,0.122244,0.070028,-0.319884,0.349532959,748,
0.368206,0.1342,-0.019276,-0.355752,0.380710769,749,
0.373816,0.140056,-0.069296,-0.35258,0.385655643,750,
0.379332,0.139568,-0.009516,-0.35258,0.379318385,751,
0.384826,0.1403,0.05002,-0.352824,0.382976325,752,
0.390322,0.139812,0.04758,-0.348432,0.378439044,753,
0.395812,0.122488,0.010004,-0.316712,0.339720298,754,
0.401316,0.126392,-0.010248,-0.305244,0.330535715,755,
0.406809,0.15616,0.005856,-0.274988,0.316288853,756,
0.412389,0.150304,0.007564,-0.240584,0.283776616,757,
0.417883,0.145912,-0.012444,-0.237656,0.279151463,758,
0.423508,0.16104,-0.042456,-0.232776,0.286218552,759,
0.429072,0.167384,-0.043676,-0.226188,0.28475605,760,
0.434578,0.167628,-0.028548,-0.220576,0.278510155,761,
0.44009,0.166408,-0.0244,-0.21838,0.275638907,762,
0.445604,0.162016,-0.022448,-0.22814,0.280715081,763,
0.451121,0.158356,-0.009516,-0.248392,0.294729983,764,
0.456617,0.15494,-0.002928,-0.277428,0.317775506,765,
0.462238,0.151768,0.005368,-0.29524,0.332007528,766,
0.467733,0.149084,0.003172,-0.31842,0.351606879,767,
0.473347,0.14762,0,-0.327448,0.35918499,768,
0.478821,0.149328,0.009272,-0.335012,0.366903069,769,
0.484393,0.1769,0.215696,-0.264984,0.384753031,770,
0.48988,0.150548,0.006588,-0.323544,0.356915707,771,
0.495375,0.088328,-0.001952,-0.339404,0.350714586,772,
0.500875,0.124196,0.059292,-0.32696,0.354743611,773,
0.506387,0.135664,-0.008296,-0.250344,0.284860778,774,
0.511891,0.145668,0.00366,-0.291824,0.326180638,775,
0.517396,0.154208,0,-0.277184,0.317192492,776,
0.522959,0.142252,-0.003416,-0.262788,0.298839143,777,
0.528477,0.141764,-0.013176,-0.262544,0.298663675,778,
0.534084,0.145424,-0.011712,-0.27694,0.313019287,779,
0.539586,0.145668,-0.008784,-0.28182,0.317362312,780,
0.545096,0.137616,-0.006344,-0.276208,0.308657203,781,
0.550614,0.13542,-0.014396,-0.290604,0.320930687,782,
0.556117,0.141764,-0.019276,-0.293288,0.326322612,783,
0.561621,0.1403,-0.01586,-0.301828,0.333220304,784,
0.567118,0.136884,-0.009028,-0.309636,0.338663826,785,
0.572695,0.132004,-0.005856,-0.319152,0.345423433,786,
0.57819,0.132004,-0.008296,-0.326228,0.35202072,787,
0.583812,0.130296,-0.011468,-0.328668,0.353738911,788,
0.589313,0.129808,-0.017812,-0.330376,0.355409181,789,
0.594806,0.130296,-0.082472,-0.326228,0.360837063,790,
0.600319,0.121024,-0.040016,-0.368196,0.389636219,791,
0.605827,0.132004,0.018056,-0.33794,0.363255446,792,
0.611326,0.120048,0.025376,-0.324276,0.346713697,793,
0.617184,0.122,-0.027328,-0.330132,0.353012687,794,
0.623736,0.148108,-0.014884,-0.326472,0.35880563,795,
0.629275,0.141032,-0.017324,-0.3111,0.342013678,796,
0.634706,0.130784,-0.025132,-0.301096,0.329233767,797,
0.640196,0.124684,-0.005612,-0.306708,0.331130475,798,
0.645695,0.126148,-0.037088,-0.310368,0.337071406,799,
0.651149,0.128832,0.047824,-0.313052,0.341886493,800,
0.656565,0.183244,0.000488,-0.309392,0.359585889,801,
0.662311,0.13298,-0.025376,-0.2989,0.328129291,802,
0.66782,0.140056,-0.025132,-0.299144,0.33126188,803,
0.673432,0.146888,-0.011224,-0.295484,0.330170951,804,
0.678981,0.138348,-0.015372,-0.292312,0.323763452,805,
0.684473,0.137372,-0.018056,-0.290116,0.321503311,806,
0.690041,0.144692,-0.01586,-0.285724,0.320664184,807,
0.695556,0.140544,-0.008784,-0.281088,0.314388674,808,
0.701175,0.143472,-0.001708,-0.277428,0.31233544,809,
0.706692,0.14396,-0.013176,-0.280356,0.315432362,810,
0.712284,0.147864,-0.021716,-0.287188,0.323747269,811,
0.717784,0.1464,-0.034648,-0.287676,0.324639685,812,
0.72381,0.150792,-0.040504,-0.284504,0.324532475,813,
0.729331,0.15738,-0.054656,-0.277672,0.323817051,814,
0.734761,0.15372,-0.058072,-0.274012,0.319507076,815,
0.740282,0.15738,-0.056364,-0.276208,0.322856352,816,
0.746896,0.156892,-0.05124,-0.27816,0.323440293,817,
0.75244,0.15006,-0.039528,-0.283772,0.323430076,818,
0.757873,0.150792,-0.0366,-0.28548,0.324925557,819,
0.76356,0.148596,-0.025132,-0.288164,0.325193603,820,
0.769068,0.142984,-0.018544,-0.289384,0.323313167,821,
0.774507,0.146888,-0.012932,-0.292068,0.327180436,822,
0.780218,0.148108,-0.00854,-0.291336,0.326933596,823,
0.785752,0.146156,-0.002928,-0.287188,0.322253156,824,
0.791257,0.144692,-0.001708,-0.289872,0.323982204,825,
0.796771,0.146156,-0.005368,-0.296704,0.330792466,826,
0.802338,0.148596,-0.0122,-0.305244,0.339710922,827,
0.807877,0.148596,-0.018544,-0.311344,0.345484786,828,
0.813416,0.144692,-0.024644,-0.314028,0.346636245,829,
0.818832,0.14396,-0.024156,-0.324032,0.355393769,830,
0.830068,0.136884,-0.005856,-0.324032,0.351807134,831,
0.835572,0.133468,0.00488,-0.327692,0.353863771,832,
0.841074,0.136152,0.007808,-0.327448,0.35471189,833,
0.846557,0.137372,0.012932,-0.323544,0.35173715,834,
0.852445,0.138348,0.027084,-0.321592,0.351134058,835,
0.857929,0.142984,0.01952,-0.326228,0.356721408,836,
0.863545,0.1464,0.010004,-0.32208,0.353932997,837,
0.869087,0.142496,0.002684,-0.320372,0.350643027,838,
0.874578,0.143472,0.006832,-0.318664,0.349539176,839,
0.880078,0.142496,0.010248,-0.313784,0.344776058,840,
0.885549,0.1464,0.007076,-0.316468,0.348762132,841,
0.891089,0.149572,-0.060512,-0.312076,0.351318823,842,
0.89659,0.149084,-0.000244,-0.305244,0.339705752,843,
0.902164,0.14884,-0.001952,-0.296948,0.332167534,844,
0.907641,0.151036,-0.003416,-0.295728,0.332082207,845,
0.913235,0.154696,-0.015616,-0.278404,0.318878502,846,
0.918733,0.146156,-0.009272,-0.273524,0.310262671,847,
0.924334,0.157136,-0.015128,-0.282796,0.323873674,848,
0.92984,0.17202,0.002684,-0.280844,0.329350021,849,
0.935325,0.17568,-0.049044,-0.260836,0.3182832,850,
0.940822,0.149084,-0.030744,-0.241804,0.285727855,851,
0.946304,0.161284,-0.007808,-0.239852,0.289140927,852,
0.951797,0.1525,0.012932,-0.227652,0.274315365,853,
0.9573,0.14152,-0.00122,-0.223748,0.264750007,854,
0.962871,0.145424,-0.02196,-0.235216,0.277411153,855,
0.968362,0.150304,-0.012688,-0.305244,0.340479335,856,
0.973951,0.157136,-0.037332,-0.25132,0.298742603,857,
0.979443,0.143472,-0.035868,-0.252784,0.292865974,858,
0.984941,0.144936,-0.026596,-0.264008,0.302347508,859,
0.990445,0.124196,-0.015372,-0.281332,0.307910115,860,
0.995943,0.120536,-0.032696,-0.308416,0.332743722,861,
0.001449,0.119072,-0.029524,-0.308904,0.332372515,862,
0.006935,0.106384,-0.005856,-0.315492,0.332997072,863,
0.012576,0.104676,0.007564,-0.319152,0.335964698,864,
0.01807,0.10004,-0.000732,-0.320128,0.335395996,865,
0.023684,0.094184,-0.000244,-0.311344,0.325277991,866,
0.029185,0.091988,0.00976,-0.313784,0.327135214,867,
0.034655,0.091988,0.010492,-0.310368,0.323882957,868,
0.040152,0.090524,0.00732,-0.308904,0.32197804,869,
0.04564,0.090036,0.011956,-0.313784,0.326664699,870,
0.051144,0.088084,0.022204,-0.316712,0.329481865,871,
0.056632,0.088572,0.02806,-0.316224,0.329590626,872,
0.062314,0.085644,0.037576,-0.316224,0.329764262,873,
0.067813,0.085888,0.03782,-0.321104,0.334536814,874,
0.073398,0.091744,0.032696,-0.32452,0.338820336,875,
0.078882,0.086376,0.044896,-0.321836,0.336236338,876,
0.084459,0.089548,0.04758,-0.342088,0.356800926,877,
0.090012,0.097356,0.027328,-0.32574,0.341074124,878,
0.095508,0.092476,0.039528,-0.34404,0.358437993,879,
0.101057,0.095648,0.050508,-0.339404,0.356222786,880,
0.106531,0.09638,0.038064,-0.328668,0.344616637,881,
0.112087,0.098332,0.052216,-0.330376,0.348631602,882,
0.117585,0.104676,0.050752,-0.321104,0.341526879,883,
0.12317,0.097356,0.039528,-0.316712,0.333687196,884,
0.12866,0.091988,0.110776,-0.313784,0.345244135,885,
0.134226,0.110288,0.069296,-0.341844,0.365817849,886,
0.139711,0.110044,0.049776,-0.326472,0.34809668,887,
0.145411,0.1037,0.0427,-0.318908,0.338052204,888,
0.150914,0.105408,0.062708,-0.307928,0.331455567,889,
0.156407,0.102724,0.0793,-0.295728,0.322948541,890,
0.161898,0.103212,0.118096,-0.291824,0.331301417,891,
0.167323,0.087352,0.118584,-0.291824,0.32688497,892,
0.17295,0.07442,0.076372,-0.3111,0.328868102,893,
0.178431,0.091256,0.038552,-0.316224,0.331378232,894,
0.18403,0.115656,0.05246,-0.254736,0.284638001,895,
0.189572,0.106628,0.066612,-0.278404,0.305475819,896,
0.195063,0.088328,0.063684,-0.263276,0.284906545,897,
0.200564,0.094428,0.111996,-0.26108,0.299370202,898,
0.206039,0.109068,0.144936,-0.27084,0.325970211,899,
0.211593,0.081984,0.15006,-0.266936,0.317008214,900,
0.217087,0.036844,0.116388,-0.264984,0.291753607,901,
0.222643,0.048312,0.067344,-0.277428,0.289543708,902,
0.228142,0.06222,0.081252,-0.29646,0.313626765,903,
0.233765,0.053924,0.091988,-0.290848,0.30977758,904,
0.239265,0.040992,0.088816,-0.280112,0.296700789,905,
0.244751,0.039528,0.097844,-0.28304,0.302072099,906,
0.250244,0.06832,0.281332,-0.319396,0.43107902,907,
0.255753,-0.002684,0.119072,-0.291336,0.314741179,908,
0.261251,0.0061,0.092476,-0.331596,0.34430354,909,
0.266751,-0.012932,0.076616,-0.34282,0.351515007,910,
0.272333,0.003172,0.106384,-0.311832,0.329494785,911,
0.277821,-0.011224,0.132004,-0.29036,0.319155078,912,
0.283438,-0.016348,0.1586,-0.292556,0.333181978,913,
0.288991,-0.019276,0.180072,-0.293532,0.344903645,914,
0.2945,-0.020252,0.17324,-0.29646,0.34396333,915,
0.300055,-0.023912,0.16836,-0.28304,0.330194662,916,
0.305554,-0.020008,0.16592,-0.276696,0.323249815,917,
0.311079,-0.018788,0.175192,-0.267912,0.320658799,918,
0.316579,-0.023424,0.19032,-0.271328,0.332248807,919,
0.32215,-0.002684,0.176168,-0.268644,0.321266193,920,
0.327667,0.058804,0.160796,-0.269864,0.319593245,921,
0.333253,0.00244,0.161284,-0.275476,0.319226423,922,
0.338756,0.008784,0.168848,-0.280844,0.327811162,923,
0.344335,0.010492,0.163968,-0.28914,0.332562064,924,
0.349825,0.013908,0.15494,-0.289628,0.328761638,925,
0.35532,0.01708,0.15372,-0.294752,0.3328668,926,
0.360823,0.020008,0.150792,-0.294264,0.331254961,927,
0.366309,0.018788,0.152012,-0.299876,0.336728752,928,
0.371804,0.0183,0.153232,-0.299388,0.336820591,929,
0.377295,0.025376,0.149572,-0.29768,0.334109424,930,
0.382855,0.021716,0.149084,-0.300852,0.336466268,931,
0.388347,0.022204,0.142984,-0.301828,0.334720157,932,
0.393938,0.025132,0.136884,-0.30256,0.333033633,933,
0.399439,0.025376,0.131272,-0.30134,0.329669645,934,
0.404931,0.027328,0.13054,-0.296704,0.325301053,935,
0.410437,0.024156,0.126636,-0.295728,0.322606942,936,
0.416023,0.025376,0.128588,-0.301584,0.328833885,937,
0.421573,0.0244,0.12444,-0.304024,0.329410483,938,
0.427079,0.023424,0.126148,-0.305732,0.331563052,939,
0.432644,0.021472,0.129564,-0.304512,0.331625444,940,
0.438141,0.023912,0.124196,-0.316956,0.341258752,941,
0.443744,0.02562,0.117852,-0.319884,0.341864376,942,
0.449256,0.025376,0.0976,-0.320372,0.335868903,943,
0.454742,0.024644,0.096868,-0.323544,0.338631741,944,
0.460229,0.020496,0.109068,-0.325984,0.344356622,945,
0.46572,0.017568,0.108092,-0.328424,0.346200576,946,
0.471217,0.01708,0.11102,-0.326228,0.345024455,947,
0.476723,0.009516,0.11346,-0.329644,0.348753341,948,
0.482384,0.00976,0.115656,-0.326228,0.346260416,949,
0.487879,0.004636,0.118096,-0.326472,0.34720617,950,
0.493488,0.007076,0.113216,-0.324764,0.344005215,951,
0.499036,0.00488,0.122488,-0.313784,0.336879093,952,
0.504519,0.001952,0.136152,-0.305488,0.334460903,953,
0.510076,-0.00488,0.146156,-0.300364,0.334071734,954,
0.515574,-0.011224,0.149328,-0.293532,0.329523694,955,
0.521094,-0.017324,0.15494,-0.300608,0.338632093,956,
0.526589,-0.019276,0.15372,-0.305,0.34209122,957,
0.532145,-0.022692,0.159332,-0.308416,0.347882225,958,
0.537619,-0.027084,0.165676,-0.30988,0.35243112,959,
0.543217,-0.032696,0.167872,-0.311344,0.355225454,960,
0.548716,-0.028548,0.179828,-0.305732,0.355844283,961,
0.554334,-0.031476,0.177876,-0.30378,0.353430189,962,
0.55986,-0.038064,0.179828,-0.294264,0.346955731,963,
0.565371,-0.03416,0.174704,-0.349408,0.392140719,964,
0.570877,0.0122,0.127856,-0.315004,0.340181594,965,
0.576379,-0.030256,0.123952,-0.299144,0.32521786,966,
0.581893,-0.027816,0.030012,-0.255956,0.259206335,967,
0.587404,-0.001464,0.118584,-0.36234,0.381253963,968,
0.592973,-0.019276,0.12688,-0.31598,0.34104759,969,
0.598465,0.0183,0.167628,-0.281576,0.32820585,970,
0.604078,-0.019032,0.131516,-0.272304,0.302998587,971,
0.609588,0.012444,0.111996,-0.25864,0.282121617,972,
0.615097,0.022204,0.115168,-0.224968,0.253707089,973,
0.620601,0.010736,0.121512,-0.17568,0.213878214,974,
0.626085,0.004636,0.11712,-0.172264,0.208358999,975,
0.631584,-0.003172,0.136884,-0.1769,0.223698237,976,
0.637088,-0.004148,0.175436,-0.192516,0.260494542,977,
0.642639,-0.000244,0.18422,-0.20984,0.279230896,978,
0.648128,0.00244,0.155672,-0.217648,0.267601153,979,
0.653729,-0.0122,0.154452,-0.251076,0.295031215,980,
0.659245,-0.00854,0.15982,-0.30988,0.348770667,981,
0.664754,-0.01708,0.172752,-0.260104,0.312712441,982,
0.670275,-0.015616,0.184708,-0.26962,0.327193901,983,
0.675763,-0.0183,0.179828,-0.267668,0.322984764,984,
0.681276,-0.022692,0.182268,-0.260592,0.318817724,985,
0.686756,-0.022204,0.175436,-0.259616,0.314119842,986,
0.692345,-0.027572,0.164212,-0.268644,0.316062327,987,
0.697842,-0.032452,0.15494,-0.268888,0.312026109,988,
0.703486,-0.026596,0.152012,-0.264984,0.306645586,989,
0.709043,-0.011956,0.150304,-0.268888,0.308277464,990,
0.714552,-0.0122,0.142984,-0.24888,0.287288215,991,
0.720068,-0.026352,0.124684,-0.22814,0.261320469,992,
0.725565,-0.024156,0.136152,-0.207888,0.249676391,993,
0.731112,0.060024,0.138104,-0.207888,0.25669635,994,
0.736609,0.010248,0.136884,-0.21106,0.251770877,995,
0.742185,0,0.127368,-0.215696,0.250494255,996,
0.747678,0.002928,0.128832,-0.22448,0.258838807,997,
0.753279,0.036356,0.118828,-0.244732,0.274473321,998,
0.758779,0.047824,0.110288,-0.243268,0.271348296,999,
0.764362,0.042212,0.113948,-0.226676,0.257192552,1000,
0.770002,0.016348,0.110776,-0.232044,0.257648981,1001,
0.77544,0.00244,0.11712,-0.233508,0.261245161,1002,
0.780923,0.01952,0.12688,-0.243024,0.274845828,1003,
0.786416,0.027328,0.13176,-0.242292,0.277151458,1004,
0.791925,0.023912,0.117608,-0.264496,0.290450614,1005,
0.797424,0.041236,0.119072,-0.267424,0.295625007,1006,
0.802978,0.034648,0.111264,-0.274012,0.297762888,1007,
0.808471,0.040504,0.105652,-0.274256,0.296680422,1008,
0.814076,0.040748,0.103944,-0.280844,0.30222195,1009,
0.819582,0.00244,0.180072,-0.338672,0.383576071,1010,
0.825066,0.050752,0.10858,-0.320128,0.34182937,1011,
0.83056,0.053436,0.097844,-0.321592,0.340367844,1012,
0.83604,0.044164,0.104432,-0.306952,0.327224742,1013,
0.841593,0.035624,0.084668,-0.310368,0.323675818,1014,
0.847087,-0.044652,0.146888,-0.337696,0.370956162,1015,
0.852639,0.035136,0.138836,-0.357216,0.384854835,1016,
0.858137,0.0122,0.141032,-0.38796,0.412979208,1017,
0.863757,0.000732,0.127856,-0.372832,0.39414641,1018,
0.86926,0.001952,0.120048,-0.367708,0.38681327,1019,
0.874672,0.010736,0.120292,-0.36722,0.38656947,1020,
0.880165,0.0244,0.11346,-0.376004,0.393506721,1021,
0.885672,0.021472,0.09638,-0.381616,0.394183869,1022,
0.891172,0.003904,0.078812,-0.357216,0.365827614,1023,
0.896657,-0.051972,0.07442,-0.325984,0.338385865,1024,
0.902249,-0.036844,0.067344,-0.264008,0.274941664,1025,
0.907763,-0.024156,0.075396,-0.277428,0.288503664,1026,
0.913356,-0.014396,0.080764,-0.311588,0.322206689,1027,
0.918831,0.004148,0.086132,-0.341112,0.351842754,1028,
0.924418,0.021228,0.114436,-0.369904,0.387782407,1029,
0.929932,0.034892,0.122732,-0.388204,0.408635462,1030,
0.935417,0.03782,0.125904,-0.386984,0.408703787,1031,
0.940912,0.025132,0.122732,-0.38064,0.400726304,1032,
0.946399,0.015372,0.098576,-0.358192,0.37182662,1033,
0.951899,-0.001952,0.087596,-0.305,0.317335579,1034,
0.957418,-0.005124,0.08906,-0.284748,0.298394642,1035,
0.962974,0.001708,0.1281,-0.256688,0.286881956,1036,
0.968477,0.02318,0.111996,-0.272548,0.295572036,1037,
0.974073,0.027572,0.105164,-0.29402,0.313476383,1038,
0.97958,0.029768,0.144204,-0.295728,0.330357348,1039,
0.985075,0.020496,0.148596,-0.284748,0.321842012,1040,
0.990586,0.023912,0.134688,-0.282064,0.313484834,1041,
0.996073,0.020984,0.128588,-0.284748,0.313139946,1042,
0.001579,0.012688,0.129076,-0.284748,0.312894587,1043,
0.007066,0.017324,0.123952,-0.284748,0.311039616,1044,
0.012616,0.019764,0.1098,-0.289384,0.310144733,1045,
0.01811,0.020984,0.101992,-0.292068,0.310074851,1046,
0.023696,0.022936,0.098332,-0.2928,0.309720975,1047,
0.029204,0.022204,0.091988,-0.286944,0.302145112,1048,
0.034701,0.024644,0.08662,-0.286212,0.300046097,1049,
0.040216,0.01952,0.083204,-0.286212,0.298699255,1050,
0.045716,0.016592,0.082716,-0.282552,0.29487771,1051,
0.051201,0.014884,0.075396,-0.282796,0.29305233,1052,
0.056685,0.005856,0.074664,-0.283284,0.293016775,1053,
0.062257,0.005612,0.084668,-0.280112,0.292682246,1054,
0.067743,0.010492,0.092476,-0.282064,0.297021872,1055,
0.073363,0.011224,0.089792,-0.282308,0.296456385,1056,
0.078827,0.00854,0.087596,-0.283284,0.296640886,1057,
0.084408,0.01098,0.082716,-0.286212,0.298127164,1058,
0.08989,0.016348,0.084912,-0.293288,0.305769776,1059,
0.095323,0.01952,0.081252,-0.32208,0.332743812,1060,
0.100822,0.016104,0.083204,-0.311832,0.323143065,1061,
0.106298,0.000732,0.084912,-0.306464,0.31801064,1062,
0.111797,0.008052,0.083936,-0.303536,0.315030459,1063,
0.117393,0.015372,0.082716,-0.289872,0.301834411,1064,
0.122954,0.018788,0.08052,-0.280112,0.292060254,1065,
0.128457,0.023912,0.0793,-0.266448,0.279024749,1066,
0.134057,0.030256,0.068076,-0.25986,0.270327555,1067,
0.139557,0.040016,0.000732,-0.248148,0.251354821,1068,
0.145084,0.033672,0.066612,-0.244488,0.255627354,1069,
0.150594,0.021228,0.07198,-0.232776,0.244573945,1070,
0.158644,0.01098,0.06954,-0.203008,0.214868844,1071,
0.16425,0.00976,0.099552,-0.19032,0.215005955,1072,
0.169745,0.025864,0.105652,-0.220576,0.245937113,1073,
0.175218,0.03294,0.092232,-0.24156,0.260658817,1074,
0.180704,0.031964,0.074664,-0.261568,0.273887256,1075,
0.186208,0.026596,0.047824,-0.27328,0.278704935,1076,
0.191716,0.025132,0.034404,-0.291824,0.294917785,1077,
0.19722,0.023668,0.034648,-0.29646,0.299414745,1078,
0.2028,0.031476,0.041724,-0.310612,0.314978484,1079,
0.2083,0.044408,0.049532,-0.319152,0.326011485,1080,
0.213913,0.05246,0.045628,-0.332572,0.33976183,1081,
0.219423,0.051972,0.032208,-0.339892,0.345347674,1082,
0.224925,0.046116,0.025864,-0.338916,0.343015578,1083,
0.230417,0.045384,0.02684,-0.334524,0.338653805,1084,
0.235901,0.0488,0.02318,-0.333548,0.337894985,1085,
0.241394,0.060756,0.01464,-0.335256,0.341031093,1086,
0.246892,0.062708,-0.000732,-0.338672,0.344429314,1087,
0.252471,0.06832,-0.010492,-0.347456,0.354264557,1088,
0.257975,0.075884,-0.011956,-0.353556,0.361805435,1089,
0.263594,0.082472,-0.00732,-0.36234,0.371679282,1090,
0.26909,0.08418,-0.000488,-0.366976,0.376507497,1091,
0.274604,0.083204,0.06222,-0.365024,0.379521745,1092,
0.280103,0.087352,-0.000732,-0.369416,0.379603858,1093,
0.285601,0.089304,-0.000732,-0.3721,0.382667153,1094,
0.291106,0.092964,-0.005124,-0.373076,0.384518221,1095,
0.296598,0.097356,-0.006588,-0.376004,0.388459265,1096,
0.302162,0.09394,-0.011224,-0.3782,0.389853744,1097,
0.30764,0.099064,-0.014884,-0.376248,0.389355579,1098,
0.313241,0.102724,-0.027572,-0.371124,0.38606406,1099,
0.318731,0.101504,-0.035136,-0.360388,0.376054665,1100,
0.328726,0.103944,-0.04026,-0.3477,0.365130816,1101,
0.334332,0.109068,-0.039528,-0.343796,0.362841537,1102,
0.339834,0.108824,-0.034648,-0.340868,0.359491502,1103,
0.345316,0.106384,-0.033672,-0.338428,0.356349365,1104,
0.350833,0.101016,-0.02562,-0.330376,0.346423033,1105,
0.356318,0.101016,-0.025376,-0.312808,0.329692309,1106,
0.361808,0.09516,-0.02562,-0.30012,0.315885777,1107,
0.367298,0.10736,-0.044408,-0.30134,0.322961353,1108,
0.372858,0.097356,-0.042944,-0.296704,0.315207299,1109,
0.378346,0.105164,-0.04514,-0.29768,0.318920788,1110,
0.38396,0.099552,-0.035624,-0.29768,0.315900384,1111,
0.389443,0.096136,-0.038308,-0.28548,0.303658466,1112,
0.394926,0.0915,-0.043676,-0.285724,0.303179892,1113,
0.40042,0.090524,-0.059536,-0.286456,0.306261604,1114,
0.405914,0.086376,-0.063928,-0.293288,0.312354692,1115,
0.411426,0.05124,-0.199104,-0.418948,0.466674798,1116,
0.416927,0.110532,-0.078324,-0.282552,0.313349014,1117,
0.422509,0.062464,-0.053192,-0.310124,0.320792823,1118,
0.428013,0.072712,-0.070272,-0.330376,0.345504689,1119,
0.433635,0.080032,-0.074908,-0.3233,0.341378411,1120,
0.439138,0.077104,-0.056364,-0.3172,0.331266912,1121,
0.444616,0.074908,-0.040748,-0.315736,0.327048666,1122,
0.450119,0.074176,-0.018056,-0.322812,0.331716273,1123,
0.455616,0.066368,-0.008296,-0.327936,0.33468725,1124,
0.461111,0.001952,0.00732,-0.322812,0.322900883,1125,
0.466591,0.060756,0.011468,-0.31598,0.321972308,1126,
0.472141,0.05856,0.001464,-0.30988,0.315368089,1127,
0.477742,0.057096,-0.003904,-0.30012,0.305527755,1128,
0.483347,0.040992,-0.017812,-0.27938,0.282932493,1129,
0.488812,0.037332,-0.018056,-0.275476,0.278579834,1130,
0.494403,0.028304,-0.020008,-0.32696,0.32879215,1131,
0.499905,0.033428,-0.013908,-0.162748,0.166726648,1132,
0.505394,0.011712,-0.039772,-0.22692,0.230676547,1133,
0.510903,0.029524,-0.079788,-0.071004,0.110812272,1134,
0.516398,0.000488,-0.052216,-0.112972,0.124456505,1135,
0.521894,0.04392,-0.180072,-0.225456,0.291865208,1136,
0.527381,0.103944,-0.132736,-0.315492,0.357712738,1137,
0.532942,0.114924,-0.183,-0.317688,0.384216334,1138,
0.538454,0.095892,-0.162504,-0.312564,0.365101465,1139,
0.544074,0.080276,-0.142252,-0.262056,0.308793159,1140,
0.549582,0.07076,-0.13298,-0.307196,0.342140381,1141,
0.555082,0.058072,-0.135908,-0.25132,0.291556314,1142,
0.560587,0.074664,-0.139568,-0.293532,0.333489092,1143,
0.566108,0.0976,-0.140544,-0.28304,0.330741617,1144,
0.571595,0.102724,-0.136884,-0.285968,0.33326738,1145,
0.577034,0.099552,-0.140544,-0.274012,0.323644547,1146,
0.582643,0.09882,-0.139324,-0.267668,0.317525948,1147,
0.588147,0.1037,-0.138104,-0.244488,0.299333905,1148,
0.593749,0.101504,-0.136884,-0.232044,0.287897047,1149,
0.599259,0.087596,-0.145912,-0.215696,0.274751043,1150,
0.604755,0.080032,-0.162992,-0.2135,0.280274442,1151,
0.610264,0.075152,-0.175924,-0.209352,0.283593612,1152,
0.615749,0.081984,-0.19154,-0.212036,0.297267915,1153,
0.621248,0.08296,-0.199592,-0.21472,0.304670324,1154,
0.626743,0.082472,-0.200324,-0.221552,0.309865494,1155,
0.632343,0.089548,-0.208132,-0.229604,0.322576767,1156,
0.637843,0.091012,-0.221064,-0.236436,0.336235718,1157,
0.643462,0.0854,-0.228384,-0.266936,0.361534562,1158,
0.649034,0.0976,-0.22326,-0.2684,0.362504273,1159,
0.65456,0.10004,-0.19642,-0.247904,0.331730631,1160,
0.660076,0.08174,-0.19642,-0.239852,0.320610708,1161,
0.665557,0.068564,-0.188612,-0.227164,0.303115476,1162,
0.671116,0.049532,-0.198128,-0.216672,0.297749692,1163,
0.676604,0.068564,-0.226432,-0.206912,0.314300888,1164,
0.682167,0.11224,-0.22326,-0.185684,0.311322009,1165,
0.687646,0.148352,-0.22448,-0.19398,0.331704427,1166,
0.693251,0.138836,-0.221308,-0.2135,0.337394303,1167,
0.698749,0.178364,-0.20374,-0.22204,0.350179191,1168,
0.70432,0.13298,-0.198616,-0.214964,0.321467754,1169,
0.70982,0.106384,-0.207156,-0.212524,0.315273872,1170,
0.715492,0.092964,-0.222528,-0.19886,0.312580095,1171,
0.721057,0.087596,-0.281088,-0.146644,0.328919421,1172,
0.726559,0.127368,-0.2928,-0.154208,0.354590686,1173,
0.732111,0.142496,-0.265472,-0.164456,0.343258312,1174,
0.737604,0.073688,-0.327448,-0.155428,0.369878328,1175,
0.743198,0.131272,-0.268644,-0.165188,0.341597734,1176,
0.748693,0.129076,-0.246928,-0.164456,0.32354262,1177,
0.754468,0.125904,-0.278404,-0.166164,0.34780897,1178,
0.760036,0.11346,-0.275964,-0.172752,0.344778994,1179,
0.765564,0.125416,-0.277672,-0.164944,0.346464191,1180,
0.771106,0.142252,-0.278404,-0.158844,0.350679106,1181,
0.77662,0.145668,-0.281332,-0.159576,0.354727163,1182,
0.782199,0.144448,-0.287432,-0.146888,0.353636061,1183,
0.78769,0.148596,-0.295728,-0.135908,0.357780387,1184,
0.793307,0.15006,-0.30134,-0.127856,0.360098536,1185,
0.798778,0.153232,-0.304512,-0.124928,0.363062817,1186,
0.80446,0.159332,-0.303292,-0.117364,0.362142281,1187,
0.810005,0.149816,-0.302316,-0.113704,0.356045499,1188,
0.815429,0.147864,-0.306708,-0.123952,0.362350187,1189,
0.820938,0.149328,-0.30744,-0.121512,0.362744223,1190,
0.826433,0.154452,-0.314028,-0.123708,0.371177416,1191,
0.831925,0.163968,-0.3233,-0.112484,0.379553745,1192,
0.837424,0.15982,-0.330376,-0.1098,0.383075415,1193,
0.842975,0.150304,-0.329644,-0.096624,0.374956873,1194,
0.848463,0.149816,-0.321836,-0.093696,0.367154171,1195,
0.854074,0.155428,-0.31842,-0.088572,0.365231651,1196,
0.859581,0.164212,-0.324764,-0.08418,0.373528458,1197,
0.86508,0.15006,-0.315004,-0.069052,0.355687647,1198,
0.870598,0.148352,-0.297436,-0.055632,0.337003575,1199,
0.876086,0.148352,-0.298168,-0.043188,0.335823876,1200,
0.881601,0.146888,-0.297436,-0.044652,0.334720868,1201,
0.887104,0.156892,-0.303536,-0.04392,0.34449698,1202,
0.892668,0.16714,-0.310612,-0.03904,0.354879861,1203,
0.898173,0.158844,-0.25254,-0.011712,0.298571665,1204,
0.903791,0.171776,-0.311832,-0.037332,0.357966295,1205,
0.909296,0.167384,-0.3294,-0.035868,0.371225372,1206,
0.914801,0.173484,-0.325008,-0.05124,0.371957573,1207,
0.920307,0.184952,-0.321836,-0.067344,0.37725438,1208,
0.925804,0.187392,-0.329156,-0.08174,0.387480143,1209,
0.931303,0.183,-0.343552,-0.089548,0.399419355,1210,
0.936792,0.173484,-0.338916,-0.092476,0.391806794,1211,
0.942383,0.166652,-0.330864,-0.090036,0.381248419,1212,
0.947875,0.17202,-0.340136,-0.085888,0.390717452,1213,
0.95349,0.162992,-0.37332,-0.078324,0.414811841,1214,
0.959041,0.181536,-0.358924,-0.08296,0.410687373,1215,
0.964572,0.219356,-0.295728,-0.121512,0.387733505,1216,
0.970041,0.182512,-0.42944,-0.087352,0.474720671,1217,
0.975466,0.166164,-0.384788,-0.072956,0.425434904,1218,
0.980947,0.151524,-0.42456,-0.077592,0.457418009,1219,
0.986446,0.150792,-0.386496,-0.05612,0.418648826,1220,
0.991931,0.142984,-0.328912,-0.040504,0.360926727,1221,
0.997442,0.153476,-0.369904,-0.040016,0.402473766,1222,
0.00301,0.18544,-0.374052,-0.041968,0.419600054,1223,
0.008513,0.188124,-0.3477,-0.010492,0.395469356,1224,
0.014104,0.198128,-0.313784,0.016836,0.371481566,1225,
0.019604,0.173484,-0.310124,0.032452,0.356828707,1226,
0.025107,0.16714,-0.329644,0.010736,0.369751549,1227,
0.030611,0.190076,-0.290604,0.011468,0.347435009,1228,
0.036083,0.161528,-0.325008,0.005856,0.362981801,1229,
0.041588,0.162748,-0.296948,-0.033428,0.340268214,1230,
0.047068,0.1647,-0.295728,0.010004,0.338646158,1231,
0.052625,0.134688,-0.271572,-0.005368,0.303184802,1232,
0.058122,0.064416,-0.307196,0.054168,0.318516837,1233,
0.063726,0.101016,-0.311832,0.004636,0.327818427,1234,
0.069234,0.113948,-0.294752,0.05002,0.319945134,1235,
0.07474,0.10736,-0.293288,0.001464,0.312323812,1236,
0.080256,0.1037,-0.286456,-0.00122,0.304650978,1237,
0.08575,0.123708,-0.288408,-0.019276,0.314411208,1238,
0.091256,0.148352,-0.324276,-0.066856,0.362812575,1239,
0.096749,0.153232,-0.357704,-0.040748,0.391270491,1240,
0.102322,0.128832,-0.36844,-0.045628,0.392972814,1241,
0.107811,0.15982,-0.334524,-0.03416,0.37231122,1242,
0.113433,0.163236,-0.319884,-0.064416,0.364857762,1243,
0.118975,0.22814,-0.279136,-0.031232,0.361856607,1244,
0.124473,0.177388,-0.36234,0.02196,0.404028489,1245,
0.130018,0.203496,-0.315248,-0.012688,0.375436957,1246,
0.135502,0.18544,-0.304756,0.03904,0.358870917,1247,
0.141058,0.174948,-0.27816,0.011956,0.328820216,1248,
0.146861,0.164212,-0.300852,0.008296,0.342850303,1249,
0.152432,0.136396,-0.293776,0.055632,0.328638291,1250,
0.157935,0.122976,-0.309636,0.044164,0.336077384,1251,
0.163558,0.108092,-0.299144,0.050264,0.322020935,1252,
0.169065,0.116144,-0.289628,0.054412,0.316756173,1253,
0.174562,0.105408,-0.275232,0.031476,0.296402157,1254,
0.180099,0.113948,-0.274256,-0.000488,0.296986091,1255,
0.185585,0.105408,-0.27328,-0.011712,0.293138151,1256,
0.191083,0.09272,-0.280356,-0.014396,0.295641218,1257,
0.196586,0.09394,-0.281088,-0.010492,0.296555677,1258,
0.202151,0.092232,-0.275476,-0.004392,0.290539254,1259,
0.207643,0.087108,-0.27938,0.008052,0.292755568,1260,
0.213217,0.076616,-0.27572,0.002196,0.286175387,1261,
0.21872,0.076128,-0.253272,0.015128,0.264898159,1262,
0.224324,0.10492,-0.260104,0.030256,0.282095237,1263,
0.229807,0.101748,-0.28304,0.016836,0.301243669,1264,
0.235302,0.125904,-0.30134,0.009516,0.32672338,1265,
0.240813,0.128588,-0.299876,0.0244,0.327193901,1266,
0.24631,0.14274,-0.316224,0.023912,0.347770196,1267,
0.251818,0.141276,-0.339404,0.019032,0.368125251,1268,
0.257299,0.14152,-0.347456,-0.01098,0.375332043,1269,
0.262865,0.170312,-0.346724,-0.004148,0.386317118,1270,
0.268352,0.1464,-0.330864,-0.005368,0.361846324,1271,
0.27394,0.172752,-0.35868,-0.001708,0.398117462,1272,
0.279442,0.161284,-0.352092,0.005612,0.387314859,1273,
0.284866,0.172264,-0.332084,0.00732,0.374176765,1274,
0.290314,0.160064,-0.327204,0.012444,0.364469196,1275,
0.295816,0.15982,-0.335988,0.004636,0.3720912,1276,
0.301313,0.15372,-0.339892,0.016836,0.373416471,1277,
0.306825,0.146156,-0.3233,-0.060512,0.359925226,1278,
0.312407,0.132492,-0.320372,-0.002928,0.346700046,1279,
0.317899,0.137372,-0.317932,0.002684,0.346351017,1280,
0.323503,0.132004,-0.31354,0.0122,0.340413319,1281,
0.329056,0.128832,-0.331596,0.010004,0.355884351,1282,
0.33454,0.133712,-0.331108,0.002928,0.357099398,1283,
0.340094,0.1281,-0.3233,0.002684,0.347763862,1284,
0.345598,0.125904,-0.332816,-0.001708,0.355838762,1285,
0.35111,0.133956,-0.321104,0.009028,0.348042373,1286,
0.356602,0.131516,-0.316712,0.009272,0.343058186,1287,
0.362154,0.121024,-0.312076,-0.010736,0.334893267,1288,
0.367652,0.116632,-0.313052,-0.003172,0.334087772,1289,
0.373233,0.11834,-0.32208,0.007564,0.343215816,1290,
0.378724,0.125172,-0.309392,-0.011712,0.333958995,1291,
0.38431,0.11468,-0.315248,0.0122,0.335680866,1292,
0.389815,0.131272,-0.318176,0.01098,0.344367341,1293,
0.395313,0.11346,-0.291336,0.019764,0.313273766,1294,
0.400815,0.122,-0.290116,0.02684,0.315866553,1295,
0.406295,0.143472,-0.284016,0.027816,0.319410446,1296,
0.411803,0.160064,-0.30866,0.03172,0.349138423,1297,
0.417296,0.16592,-0.329156,0.0366,0.370422298,1298,
0.422854,0.130052,-0.322324,-0.000488,0.347572326,1299,
0.428343,0.10858,-0.351604,-0.025864,0.368895562,1300,
0.433947,0.078568,-0.354044,-0.033916,0.364239454,1301,
0.439447,0.078324,-0.320372,-0.016836,0.330236761,1302,
0.444941,0.079544,-0.295728,-0.02562,0.307308774,1303,
0.450451,0.075396,-0.310368,-0.009272,0.319529063,1304,
0.455941,0.072468,-0.295484,-0.014396,0.304581106,1305,
0.461444,0.071248,-0.283528,-0.012688,0.292618164,1306,
0.466934,0.085644,-0.288652,-0.00976,0.301247621,1307,
0.472496,0.0793,-0.316468,-0.004636,0.326285117,1308,
0.477986,0.079056,-0.295728,0.000732,0.306113438,1309,
0.483597,0.087596,-0.305976,0.006832,0.318341088,1310,
0.489102,0.083692,-0.335744,0.009028,0.346135651,1311,
0.494696,0.080032,-0.337452,0.012444,0.347035771,1312,
0.500207,0.082716,-0.320128,0.017812,0.331121036,1313,
0.505708,0.090036,-0.317688,0.022692,0.330978962,1314,
0.51123,0.095404,-0.315248,0.020252,0.329989952,1315,
0.516718,0.100528,-0.252296,0.016104,0.272063392,1316,
0.522315,0.101748,-0.32086,0.014396,0.336913995,1317,
0.527815,0.11224,-0.355752,0.022448,0.373712745,1318,
0.533415,0.123708,-0.366,0.028792,0.387412762,1319,
0.538982,0.133712,-0.385276,0.019276,0.40827449,1320,
0.544477,0.141764,-0.386496,0.019764,0.412149009,1321,
0.550014,0.145424,-0.362584,0.017568,0.391054896,1322,
0.555508,0.154208,-0.348676,0.01708,0.381636983,1323,
0.561047,0.15982,-0.354044,0.013908,0.388693991,1324,
0.56655,0.155916,-0.349896,0.0061,0.383111237,1325,
0.572127,0.153964,-0.330132,0.005368,0.364308751,1326,
0.577625,0.15738,-0.329156,-0.001952,0.364850582,1327,
0.583212,0.158844,-0.316468,-0.011712,0.35428884,1328,
0.588711,0.162992,-0.3111,-0.01952,0.351753653,1329,
0.594305,0.16104,-0.29524,-0.021472,0.336989,1330,
0.599825,0.162504,-0.28304,-0.02684,0.327474544,1331,
0.605335,0.162504,-0.259128,-0.026108,0.306979638,1332,
0.610816,0.165188,-0.256688,-0.028548,0.306579179,1333,
0.61626,0.1586,-0.2562,-0.027084,0.302532549,1334,
0.62174,0.156648,-0.237656,-0.025864,0.285810981,1335,
0.627245,0.159088,-0.22936,-0.030988,0.280847392,1336,
0.632823,0.1586,-0.254004,-0.030256,0.300977437,1337,
0.63832,0.150792,-0.259372,-0.026596,0.301196628,1338,
0.643916,0.15128,-0.250344,-0.02074,0.293236942,1339,
0.649417,0.152988,-0.262056,-0.009272,0.303586306,1340,
0.654927,0.149084,-0.288652,-0.004148,0.324904943,1341,
0.660435,0.152744,-0.320128,-0.005612,0.354745205,1342,
0.665934,0.15616,-0.29402,-0.003416,0.332934491,1343,
0.671429,0.16714,-0.277184,-0.000244,0.323677013,1344,
0.676926,0.1647,-0.295484,-0.002928,0.338297883,1345,
0.682511,0.178364,-0.369904,0.001952,0.410665918,1346,
0.688001,0.1769,-0.364292,0.001464,0.404974585,1347,
0.693601,0.174948,-0.426024,0.006344,0.460590379,1348,
0.699109,0.19642,-0.383568,0.009516,0.431040348,1349,
0.704608,0.193248,-0.358924,0.012688,0.407838464,1350,
0.710445,0.199836,-0.352336,0.01464,0.405326305,1351,
0.717885,0.203496,-0.328912,-0.000244,0.386773558,1352,
0.723446,0.20252,-0.347212,0.006588,0.402012344,1353,
0.728858,0.198616,-0.377712,-0.005856,0.426789132,1354,
0.734494,0.17324,-0.382348,0.008296,0.419846298,1355,
0.740035,0.166408,-0.31598,0.013908,0.357391124,1356,
0.745482,0.17202,-0.373564,0.022692,0.411893031,1357,
0.750967,0.158356,-0.366732,0.038796,0.401340394,1358,
0.756478,0.127856,-0.362584,0.053192,0.388128462,1359,
0.761952,0.184464,-0.298412,0.076372,0.359039512,1360,
0.767441,0.121268,-0.369904,0.087108,0.398901869,1361,
0.773011,0.068808,-0.366,0.096624,0.384742431,1362,
0.778499,0.09882,-0.367708,0.126148,0.401108319,1363,
0.784113,0.10858,-0.335744,0.136884,0.378484979,1364,
0.789617,0.121756,-0.312076,0.139568,0.362898305,1365,
0.795113,0.132492,-0.315492,0.1281,0.36537507,1366,
0.800597,0.132248,-0.285236,0.12078,0.336803975,1367,
0.80609,0.133956,-0.2745,0.10858,0.324166742,1368,
0.811584,0.127368,-0.247416,0.0915,0.292932645,1369,
0.817181,0.142008,-0.249856,0.078324,0.297874037,1370,
0.824469,0.122244,-0.24888,0.050996,0.281931626,1371,
0.834837,0.08784,-0.296704,0.044652,0.312638658,1372,
0.840321,0.161528,-0.241316,0.053436,0.295262786,1373,
0.845903,0.13908,-0.205692,0.081008,0.261179519,1374,
0.851372,0.103456,-0.336476,0.085644,0.362290129,1375,
0.856807,0.096136,-0.247416,0.085888,0.278986659,1376,
0.862718,0.180072,-0.237412,0.094916,0.312729004,1377,
0.868214,0.108092,-0.351116,0.09516,0.379501978,1378,
0.873817,0.139324,-0.32086,0.108336,0.366195311,1379,
0.879321,0.166408,-0.303292,0.112484,0.363772333,1380,
0.884807,0.156892,-0.330864,0.124196,0.386666177,1381,
0.89029,0.18056,-0.307684,0.126392,0.378478923,1382,
0.895786,0.20008,-0.310612,0.16104,0.403045534,1383,
0.901487,0.13054,-0.3294,0.17446,0.394944734,1384,
0.909606,0.19398,-0.301828,0.17934,0.401112475,1385,
0.915055,0.205692,-0.295972,0.180804,0.403235304,1386,
0.920605,0.20496,-0.25986,0.185928,0.379611699,1387,
0.926103,0.19886,-0.258884,0.175192,0.370484091,1388,
0.93157,0.193492,-0.263764,0.160552,0.364400256,1389,
0.936988,0.197396,-0.272304,0.137616,0.363390716,1390,
0.942756,0.13054,-0.280112,0.131272,0.335761466,1391,
0.948255,0.173728,-0.28182,0.122244,0.352912915,1392,
0.953867,0.158844,-0.27694,0.11224,0.338415422,1393,
0.959382,0.121756,-0.286212,0.100284,0.326800724,1394,
0.964887,0.136396,-0.278404,0.081252,0.320491097,1395,
0.970409,0.129564,-0.276452,0.067588,0.312699018,1396,
0.975901,0.12932,-0.27206,0.056608,0.306504114,1397,
0.981389,0.130784,-0.267912,0.047824,0.301941102,1398,
0.98688,0.114436,-0.266448,0.040504,0.292798068,1399,
0.992506,0.10858,-0.270108,0.04148,0.294055332,1400,
0.998017,0.10614,-0.278404,0.038796,0.300465666,1401,
0.003625,0.106872,-0.27328,0.032696,0.295250082,1402,
0.009136,0.110776,-0.267912,0.030744,0.291536199,1403,
0.014625,0.11224,-0.270108,0.027816,0.293819467,1404,
0.020134,0.121024,-0.2745,0.022936,0.300870601,1405,
0.025616,0.063196,-0.285236,0.018544,0.292740824,1406,
0.031098,0.130784,-0.283284,0.016836,0.312470367,1407,
0.036594,0.132492,-0.283284,0.010248,0.312904101,1408,
0.042135,0.13664,-0.280112,0.02562,0.312713298,1409,
0.047641,0.14274,-0.282308,0.015128,0.316703917,1410,
0.053233,0.144448,-0.30988,0.014884,0.34221685,1411,
0.058736,0.156892,-0.332572,0.00366,0.367739895,1412,
0.064314,0.162748,-0.357216,-0.006588,0.392598502,1413,
0.069818,0.16836,-0.369904,-0.010248,0.406545299,1414,
0.075333,0.171044,-0.342088,-0.017324,0.38285816,1415,
0.080848,0.189832,-0.343796,-0.011712,0.392898268,1416,
0.086334,0.1891,-0.36844,-0.015128,0.414410063,1417,
0.091819,0.169824,-0.367464,-0.008784,0.404903866,1418,
0.097332,0.175436,-0.332328,-0.00732,0.375863369,1419,
0.102896,0.18422,-0.33306,-0.0061,0.380661506,1420,
0.108382,0.183,-0.330376,-0.00732,0.377744469,1421,
0.113974,0.180316,-0.321836,0.001464,0.368909764,1422,
0.119459,0.183732,-0.3233,0.000244,0.371860723,1423,
0.124961,0.184464,-0.324764,0.000244,0.373495224,1424,
0.130442,0.190808,-0.326228,0.061732,0.382940257,1425,
0.13593,0.201544,-0.32696,0.00366,0.38410444,1426,
0.141427,0.201544,-0.331108,0.005856,0.387668395,1427,
0.147169,0.204228,-0.325496,0.007564,0.384335708,1428,
0.152728,0.206424,-0.322568,0.01464,0.38324315,1429,
0.15821,0.206424,-0.325496,0.020008,0.385951854,1430,
0.163836,0.1952,-0.324276,0.026596,0.37942761,1431,
0.169335,0.189832,-0.316712,0.031476,0.370585237,1432,
0.17481,0.184708,-0.314272,0.040504,0.36677583,1433,
0.180294,0.177388,-0.314028,0.037332,0.362593113,1434,
0.185819,0.171288,-0.310612,0.04392,0.357419026,1435,
0.191315,0.166896,-0.313784,0.05124,0.359082457,1436,
0.196806,0.157868,-0.304024,0.05612,0.347134487,1437,
0.202484,0.1403,-0.30866,0.068076,0.345817043,1438,
0.207976,0.129808,-0.32574,0.079544,0.359560721,1439,
0.213576,0.126392,-0.30866,0.056364,0.338264444,1440,
0.219572,0.062952,-0.2989,0.052704,0.309970766,1441,
0.225063,0.113948,-0.366,0.057096,0.387556576,1442,
0.230552,0.11102,-0.32696,0.05124,0.349075665,1443,
0.236045,0.0976,-0.259372,0.04636,0.280978369,1444,
0.241591,0.094672,-0.319396,0.052216,0.337198907,1445,
0.247099,0.097112,-0.250832,0.037576,0.271586797,1446,
0.252644,0.101992,-0.306952,0.039284,0.325829911,1447,
0.258126,0.096868,-0.310368,0.042456,0.327893606,1448,
0.263724,0.092964,-0.312808,0.055876,0.33107896,1449,
0.269226,0.089548,-0.307928,0.057828,0.325856679,1450,
0.274739,0.091256,-0.304268,0.06344,0.323931022,1451,
0.280233,0.090768,-0.303292,0.067344,0.323666621,1452,
0.285732,0.097356,-0.305,0.06466,0.32662533,1453,
0.291214,0.102236,-0.306708,0.065636,0.329894046,1454,
0.296713,0.11346,-0.305976,0.063684,0.332490806,1455,
0.302294,0.118584,-0.311344,0.0671,0.339852411,1456,
0.307789,0.12688,-0.307684,0.063196,0.338764981,1457,
0.313397,0.131516,-0.306952,0.062952,0.339821928,1458,
0.318865,0.137372,-0.309392,0.060756,0.34392698,1459,
0.324845,0.142008,-0.310856,0.058072,0.346655567,1460,
0.330343,0.141276,-0.314516,0.053436,0.348904899,1461,
0.335848,0.14274,-0.313296,0.050996,0.348036899,1462,
0.341343,0.1464,-0.316224,0.050508,0.352110261,1463,
0.346825,0.147132,-0.32086,0.0488,0.3563431,1464,
0.352418,0.15372,-0.318908,0.048556,0.357337146,1465,
0.357908,0.160064,-0.315492,0.048312,0.357057048,1466,
0.363544,0.1647,-0.315736,0.0488,0.359439497,1467,
0.369061,0.172508,-0.3172,0.04514,0.363885242,1468,
0.374545,0.18178,-0.313784,0.046604,0.365617696,1469,
0.38008,0.183244,-0.254492,0.049776,0.317525104,1470,
0.385572,0.195932,-0.297924,0.044652,0.35936313,1471,
0.391081,0.192028,-0.305488,0.049532,0.364212973,1472,
0.396562,0.200324,-0.2867,0.050996,0.353450402,1473,
0.402101,0.194956,-0.285968,0.055632,0.350543091,1474,
0.408045,0.187392,-0.282552,0.049776,0.342679215,1475,
0.413648,0.192028,-0.277428,0.043676,0.340218519,1476,
0.419152,0.1952,-0.291092,0.038552,0.352595872,1477,
0.424648,0.18422,-0.295484,0.039772,0.350470562,1478,
0.430156,0.166408,-0.296704,0.038796,0.342388691,1479,
0.43564,0.149084,-0.297924,0.032208,0.334697033,1480,
0.441128,0.139324,-0.310124,0.031232,0.341413986,1481,
0.446633,0.133712,-0.315004,0.031964,0.343697711,1482,
0.452204,0.125172,-0.32208,0.037332,0.347558965,1483,
0.457687,0.112728,-0.315004,0.039284,0.336865485,1484,
0.46327,0.10858,-0.303292,0.041236,0.324770783,1485,
0.468757,0.108824,-0.302072,0.035136,0.322993335,1486,
0.474329,0.109556,-0.29646,0.033184,0.317792742,1487,
0.479824,0.113704,-0.291336,0.027816,0.31397292,1488,
0.485319,0.11468,-0.291824,0.026352,0.31465406,1489,
0.490817,0.1159,-0.290848,0.023668,0.313983349,1490,
0.496311,0.121268,-0.2867,0.02318,0.312154017,1491,
0.501817,0.121268,-0.28426,0.022204,0.309843014,1492,
0.507298,0.121024,-0.284016,0.025376,0.309767394,1493,
0.512857,0.118828,-0.281332,0.02928,0.306798152,1494,
0.518359,0.11834,-0.273768,0.031476,0.299906672,1495,
0.52396,0.117852,-0.28426,0.033672,0.309558791,1496,
0.529455,0.116876,-0.280844,0.034892,0.30618753,1497,
0.534956,0.11956,-0.280844,0.036844,0.307449876,1498,
0.540446,0.11712,-0.287432,0.037576,0.312643895,1499,
0.545922,0.114436,-0.291092,0.039528,0.315265941,1500,
0.55157,0.120292,-0.292312,0.03782,0.318350158,1501,
0.557054,0.11834,-0.311832,0.039772,0.33589487,1502,
0.562596,0.120292,-0.311344,0.0366,0.335774942,1503,
0.568094,0.121512,-0.315004,0.041236,0.340136875,1504,
0.573697,0.121512,-0.313052,0.04392,0.338667517,1505,
0.579193,0.122,-0.32086,0.04514,0.346226457,1506,
0.584688,0.12566,-0.3172,0.04636,0.344318929,1507,
0.590177,0.187148,-0.327448,0.04636,0.379994495,1508,
0.595665,0.129076,-0.328668,0.046604,0.356167378,1509,
0.601168,0.129808,-0.327692,0.049288,0.355895309,1510,
0.606655,0.134932,-0.33062,0.046848,0.360154084,1511,
0.612231,0.14274,-0.325984,0.04758,0.359032216,1512,
0.617705,0.148352,-0.323056,0.049776,0.358958417,1513,
0.623309,0.151524,-0.319884,0.0549,0.358188925,1514,
0.628778,0.155428,-0.320128,0.053436,0.359854423,1515,
0.634354,0.161772,-0.318908,0.05856,0.362355856,1516,
0.639836,0.165432,-0.322812,0.060512,0.367745885,1517,
0.645313,0.165676,-0.32086,0.064416,0.366809348,1518,
0.650819,0.167628,-0.321592,0.066124,0.368636602,1519,
0.65631,0.166896,-0.315736,0.068808,0.363700478,1520,
0.661795,0.166408,-0.317932,0.070028,0.365617696,1521,
0.667289,0.168604,-0.313296,0.067588,0.362146145,1522,
0.67284,0.169336,-0.310856,0.064416,0.359799326,1523,
0.678321,0.167384,-0.310368,0.061,0.357864079,1524,
0.683934,0.16714,-0.307196,0.058316,0.354550304,1525,
0.689446,0.163724,-0.305976,0.050996,0.350752695,1526,
0.694881,0.16104,-0.305244,0.048556,0.348518961,1527,
0.700343,0.158844,-0.305244,0.04514,0.347048895,1528,
0.705841,0.156404,-0.299388,0.038308,0.33994542,1529,
0.711321,0.15372,-0.302804,0.034648,0.341351116,1530,
0.716828,0.151768,-0.303536,0.032696,0.340934976,1531,
0.72241,0.15006,-0.304268,0.027816,0.340397928,1532,
0.727896,0.148596,-0.305488,0.02196,0.340420227,1533,
0.73354,0.145668,-0.306952,0.023668,0.34058607,1534,
0.73909,0.145912,-0.300364,0.018056,0.3344172,1535,
0.744603,0.143716,-0.303536,0.016104,0.336225714,1536,
0.750113,0.143228,-0.299632,0.016836,0.332531271,1537,
0.755612,0.140056,-0.301828,0.015128,0.333083595,1538,
0.761115,0.1403,-0.297192,0.012932,0.328898786,1539,
0.766613,0.133956,-0.29524,0.011468,0.324410824,1540,
0.772187,0.13298,-0.2989,0.020984,0.327818881,1541,
0.77768,0.135176,-0.298412,0.016836,0.328033114,1542,
0.783383,0.1342,-0.313296,0.014396,0.341132333,1543,
0.788882,0.126392,-0.309636,0.013908,0.334727983,1544,
0.794467,0.130784,-0.30744,0.009028,0.334223448,1545,
0.800025,0.133224,-0.30988,0.004392,0.337332978,1546,
0.805519,0.132736,-0.31598,0.008052,0.342822171,1547,
0.811063,0.130296,-0.311344,0.011468,0.337703493,1548,
0.816547,0.131028,-0.30744,0.006832,0.334266909,1549,
0.822112,0.131516,-0.310856,0.007808,0.337622386,1550,
0.827608,0.133224,-0.310856,0.011956,0.338412519,1551,
0.833197,0.133224,-0.307928,0.012688,0.335751802,1552,
0.838686,0.13176,-0.312564,0.01342,0.339465828,1553,
0.84428,0.132004,-0.315492,0.016592,0.342396776,1554,
0.849788,0.133224,-0.315004,0.014884,0.342341478,1555,
0.85529,0.131272,-0.314272,0.017568,0.341039386,1556,
0.8608,0.132736,-0.316468,0.017324,0.343614554,1557,
0.866295,0.133224,-0.318664,0.0183,0.345876089,1558,
0.871795,0.134688,-0.315736,0.020008,0.343846476,1559,
0.877305,0.136884,-0.317688,0.019032,0.346446405,1560,
0.882866,0.134932,-0.3172,0.021228,0.345359396,1561,
0.888359,0.135176,-0.30988,0.022692,0.338840807,1562,
0.893983,0.138348,-0.370636,0.026596,0.396507958,1563,
0.899436,0.137616,-0.315004,0.027572,0.344856345,1564,
0.904933,0.137616,-0.317688,0.03294,0.347777044,1565,
0.910425,0.137372,-0.315736,0.033184,0.345921185,1566,
0.915914,0.138836,-0.314516,0.037088,0.345790788,1567,
0.92139,0.138592,-0.316224,0.036356,0.347170159,1568,
0.926882,0.138348,-0.3172,0.038796,0.348225701,1569,
0.932457,0.142252,-0.313052,0.043676,0.346619069,1570,
0.937952,0.139812,-0.308416,0.047824,0.341986782,1571,
0.943563,0.14274,-0.309148,0.050996,0.34430769,1572,
0.949075,0.146888,-0.303048,0.050996,0.340609405,1573,
0.954568,0.145912,-0.302804,0.05124,0.340008988,1574,
0.960078,0.146156,-0.298412,0.05246,0.336397607,1575,
0.965581,0.149084,-0.299632,0.052948,0.338834569,1576,
0.97107,0.149328,-0.305976,0.056852,0.345184464,1577,
0.97657,0.150304,-0.306464,0.05734,0.346120429,1578,
0.982129,0.148596,-0.305732,0.056364,0.344571803,1579,
0.987626,0.155184,-0.300852,0.052704,0.342595551,1580,
0.993218,0.152256,-0.30744,0.055144,0.347479645,1581,
0.998711,0.149328,-0.311588,0.05368,0.349667665,1582,
0.004287,0.14884,-0.306708,0.05124,0.34474437,1583,
0.009778,0.1525,-0.370392,0.051484,0.403852802,1584,
0.015253,0.152256,-0.309636,0.048556,0.348445157,1585,
0.020748,0.150548,-0.374052,0.047092,0.405952282,1586,
0.026245,0.149328,-0.313296,0.046116,0.350114154,1587,
0.031746,0.148108,-0.306952,0.042456,0.343450174,1588,
0.037244,0.147376,-0.310612,0.04148,0.346294803,1589,
0.042801,0.146644,-0.313296,0.038064,0.348005337,1590,
0.048284,0.143472,-0.314028,0.034404,0.346960278,1591,
0.053904,0.139812,-0.309636,0.033672,0.341402477,1592,
0.059427,0.144448,-0.312808,0.032208,0.346051188,1593,
0.064917,0.14274,-0.31232,0.032208,0.344899761,1594,
0.0704,0.139324,-0.316956,0.031964,0.347698116,1595,
0.075888,0.1403,-0.322812,0.028304,0.353118668,1596,
0.081377,0.1403,-0.319152,0.025864,0.34958695,1597,
0.086877,0.138592,-0.316956,0.026108,0.346915661,1598,
0.09244,0.138592,-0.313296,0.027328,0.343669821,1599,
0.097948,0.139324,-0.313296,0.027084,0.343946367,1600,
0.103584,0.138592,-0.305,0.025132,0.335952913,1601,
0.109086,0.13908,-0.305,0.026596,0.336267146,1602,
0.114576,0.139812,-0.304268,0.025864,0.335850201,1603,
0.120067,0.13908,-0.30866,0.026596,0.339590326,1604,
0.12556,0.135908,-0.3111,0.024888,0.340402125,1605,
0.131101,0.138348,-0.307196,0.025132,0.337847849,1606,
0.136616,0.137616,-0.303292,0.0244,0.333945446,1607,
0.14218,0.138104,-0.302804,0.02684,0.333891244,1608,
0.147981,0.136884,-0.305488,0.026108,0.33577042,1609,
0.153591,0.138348,-0.305976,0.029524,0.337095162,1610,
0.1591,0.136396,-0.30744,0.028304,0.337526797,1611,
0.164596,0.135664,-0.30866,0.027328,0.338264004,1612,
0.170115,0.135176,-0.312564,0.032452,0.342084693,1613,
0.175612,0.133956,-0.30866,0.030256,0.337832253,1614,
0.181092,0.133224,-0.302072,0.030744,0.331574005,1615,
0.186595,0.132248,-0.298656,0.032208,0.328210748,1616,
0.192182,0.133468,-0.297192,0.034404,0.327597966,1617,
0.197685,0.13298,-0.299632,0.033916,0.329565336,1618,
0.203303,0.136152,-0.306708,0.033672,0.337255049,1619,
0.208786,0.138836,-0.302072,0.035136,0.334301461,1620,
0.214357,0.138348,-0.304756,0.034892,0.336502363,1621,
0.21987,0.138592,-0.2989,0.035868,0.331414342,1622,
0.225381,0.142984,-0.297436,0.037576,0.332151402,1623,
0.231017,0.143716,-0.302072,0.038796,0.336759427,1624,
0.236509,0.147132,-0.305732,0.03904,0.341531847,1625,
0.242073,0.147376,-0.308172,0.040992,0.344049431,1626,
0.247583,0.144936,-0.301828,0.039528,0.337148407,1627,
0.253176,0.146156,-0.30622,0.041236,0.341807947,1628,
0.258676,0.144448,-0.305488,0.041236,0.340424075,1629,
0.264271,0.14518,-0.303536,0.040504,0.338898082,1630,
0.269778,0.144936,-0.310124,0.039772,0.344623202,1631,
0.275292,0.143228,-0.305488,0.040504,0.339820176,1632,
0.280802,0.140056,-0.305732,0.038308,0.338460104,1633,
0.286314,0.139324,-0.306708,0.038308,0.339040524,1634,
0.291815,0.140788,-0.31232,0.038064,0.344693939,1635,
0.297325,0.14152,-0.2501,0.037088,0.2897472,1636,
0.30288,0.1403,-0.316468,0.0366,0.348102923,1637,
0.308376,0.139324,-0.31598,0.037576,0.347370829,1638,
0.313974,0.139324,-0.314028,0.034892,0.345314659,1639,
0.319544,0.140056,-0.30988,0.033428,0.341699764,1640,
0.325032,0.140056,-0.311832,0.034892,0.343616546,1641,
0.335075,0.140544,-0.313784,0.033916,0.345489956,1642,
0.340611,0.136884,-0.313784,0.03294,0.343922479,1643,
0.34611,0.135908,-0.310612,0.033672,0.340711906,1644,
0.351631,0.134688,-0.313784,0.034648,0.343222581,1645,
0.357134,0.133224,-0.316712,0.035868,0.345458592,1646,
0.362693,0.133712,-0.374784,0.035136,0.399470254,1647,
0.368197,0.13298,-0.311832,0.035868,0.340894984,1648,
0.373816,0.131272,-0.308904,0.036112,0.3375768,1649,
0.37932,0.131516,-0.313296,0.036844,0.341772325,1650,
0.384812,0.130052,-0.316224,0.040992,0.344371144,1651,
0.390314,0.129076,-0.314272,0.03904,0.341981908,1652,
0.395801,0.13054,-0.308416,0.039528,0.337229274,1653,
0.401285,0.128588,-0.30378,0.042212,0.332564302,1654,
0.406788,0.13054,-0.301828,0.042456,0.331577058,1655,
0.412377,0.130052,-0.304512,0.03904,0.33341446,1656,
0.417859,0.13176,-0.305244,0.03904,0.334751727,1657,
0.423475,0.13176,-0.305732,0.038064,0.335084499,1658,
0.429039,0.132004,-0.307684,0.040504,0.33724631,1659,
0.434543,0.133712,-0.306464,0.04026,0.336778785,1660,
0.440076,0.13298,-0.307928,0.038552,0.337623445,1661,
0.445569,0.132492,-0.30866,0.040504,0.338327799,1662,
0.45111,0.131516,-0.310368,0.041236,0.339595585,1663,
0.456613,0.132004,-0.311588,0.041724,0.340958986,1664,
0.462182,0.131028,-0.311344,0.040504,0.340211695,1665,
0.467681,0.13054,-0.310612,0.04148,0.33947179,1666,
0.473281,0.13176,-0.308172,0.039772,0.337509246,1667,
0.478779,0.13054,-0.306464,0.038552,0.335331376,1668,
0.484371,0.130052,-0.30866,0.036112,0.336880683,1669,
0.489871,0.132736,-0.310124,0.03538,0.339186505,1670,
0.495371,0.132492,-0.311832,0.03538,0.340653887,1671,
0.500884,0.131028,-0.30988,0.033672,0.338123875,1672,
0.50638,0.134444,-0.31476,0.03416,0.34397086,1673,
0.511902,0.13298,-0.315248,0.034892,0.343922133,1674,
0.517401,0.135664,-0.315736,0.033672,0.34529371,1675,
0.522966,0.134932,-0.314516,0.033672,0.343890626,1676,
0.528462,0.13664,-0.315004,0.033428,0.344986146,1677,
0.534064,0.137372,-0.311344,0.034404,0.3420377,1678,
0.539558,0.137372,-0.312564,0.032696,0.342981558,1679,
0.545065,0.137128,-0.308904,0.0366,0.33994901,1680,
0.550578,0.139812,-0.309392,0.036112,0.341430639,1681,
0.556072,0.136396,-0.308172,0.035868,0.338910554,1682,
0.561577,0.137128,-0.306952,0.037332,0.338256259,1683,
0.567082,0.135664,-0.307928,0.03782,0.338607038,1684,
0.572736,0.135664,-0.306708,0.038552,0.337580768,1685,
0.578232,0.134444,-0.307684,0.036356,0.337737164,1686,
0.583837,0.13542,-0.308416,0.036356,0.338793099,1687,
0.589339,0.13176,-0.306708,0.039284,0.336115646,1688,
0.594825,0.13298,-0.305976,0.038064,0.335788417,1689,
0.600332,0.133224,-0.30744,0.040016,0.337445207,1690,
0.605839,0.135176,-0.306952,0.04026,0.337806082,1691,
0.611327,0.136152,-0.307684,0.039528,0.338776141,1692,
0.616819,0.135664,-0.307928,0.039772,0.338830616,1693,
0.622402,0.136152,-0.307928,0.038796,0.338913189,1694,
0.627904,0.135176,-0.307928,0.040748,0.338751537,1695,
0.633514,0.137128,-0.308416,0.038796,0.339749389,1696,
0.639058,0.139568,-0.307928,0.03782,0.340189994,1697,
0.644548,0.138348,-0.30866,0.036844,0.340247917,1698,
0.650102,0.137128,-0.309636,0.037088,0.340667082,1699,
0.65562,0.138836,-0.310612,0.036844,0.342217372,1700,
0.661126,0.135664,-0.3111,0.0366,0.341361232,1701,
0.666616,0.136396,-0.3111,0.036356,0.341626752,1702,
0.672195,0.134932,-0.374052,0.036356,0.399303521,1703,
0.677692,0.136884,-0.313296,0.037576,0.343952858,1704,
0.683294,0.13664,-0.312564,0.036844,0.343109639,1705,
0.688779,0.135176,-0.316956,0.037332,0.346593905,1706,
0.694371,0.1403,-0.314516,0.03416,0.346079918,1707,
0.699887,0.136884,-0.31354,0.035136,0.343917286,1708,
0.705392,0.135664,-0.311344,0.037088,0.34163625,1709,
0.710891,0.134932,-0.310368,0.037088,0.340456252,1710,
0.716388,0.135176,-0.310124,0.03538,0.340148777,1711,
0.721891,0.13542,-0.312564,0.03782,0.34273194,1712,
0.727386,0.134688,-0.313052,0.036112,0.342704667,1713,
0.732948,0.134444,-0.2501,0.037088,0.286357676,1714,
0.738443,0.1342,-0.313296,0.036844,0.342814095,1715,
0.744046,0.135908,-0.371612,0.037576,0.397464991,1716,
0.74954,0.13542,-0.311344,0.037088,0.34153943,1717,
0.755036,0.134688,-0.311832,0.038064,0.34180246,1718,
0.760538,0.13542,-0.311344,0.036844,0.34151302,1719,
0.766037,0.135664,-0.30866,0.039772,0.339495992,1720,
0.771592,0.137616,-0.31232,0.039772,0.343604071,1721,
0.777077,0.134932,-0.30988,0.041236,0.340488864,1722,
0.782622,0.13786,-0.309636,0.041724,0.341497766,1723,
0.788129,0.137616,-0.312564,0.041724,0.344057131,1724,
0.79372,0.139568,-0.30988,0.040992,0.342323217,1725,
0.799237,0.13786,-0.307684,0.04148,0.339699005,1726,
0.804734,0.138836,-0.30866,0.041724,0.341009271,1727,
0.810227,0.13664,-0.309148,0.041236,0.340504601,1728,
0.815738,0.136396,-0.306708,0.044652,0.338625851,1729,
0.82124,0.136884,-0.307928,0.042944,0.33970733,1730,
0.82675,0.139568,-0.308416,0.04392,0.341362889,1731,
0.832329,0.138348,-0.304756,0.040992,0.337189461,1732,
0.837836,0.138104,-0.305,0.041724,0.337399773,1733,
0.843441,0.137616,-0.307196,0.043432,0.339402246,1734,
0.849013,0.138104,-0.308416,0.043432,0.340704392,1735,
0.854514,0.138592,-0.308172,0.042944,0.340619893,1736,
0.860075,0.138348,-0.307196,0.04026,0.339308737,1737,
0.865577,0.137372,-0.308172,0.04148,0.339943581,1738,
0.871086,0.135176,-0.30744,0.041724,0.338426944,1739,
0.876561,0.137616,-0.306952,0.037088,0.33842756,1740,
0.882109,0.135908,-0.306952,0.037332,0.337763516,1741,
0.887619,0.135908,-0.306708,0.036112,0.337409037,1742,
0.893217,0.135664,-0.307928,0.036112,0.338420523,1743,
0.898724,0.136396,-0.307684,0.035624,0.338441106,1744,
0.904409,0.136884,-0.307196,0.034404,0.338068406,1745,
0.909917,0.135664,-0.307684,0.034648,0.338045335,1746,
0.915406,0.135664,-0.307684,0.036844,0.338277468,1747,
0.92092,0.138836,-0.30866,0.0366,0.340420314,1748,
0.926405,0.13908,-0.307928,0.035868,0.339778476,1749,
0.931846,0.137372,-0.310124,0.033184,0.340806601,1750,
0.937274,0.138348,-0.308172,0.03538,0.339649665,1751,
0.943022,0.140544,-0.3111,0.034892,0.343151974,1752,
0.948523,0.138104,-0.30866,0.0366,0.340122434,1753,
0.954118,0.137372,-0.309148,0.036844,0.340295508,1754,
0.95963,0.141276,-0.307684,0.037088,0.340593411,1755,
0.965127,0.142984,-0.30622,0.037088,0.339986224,1756,
0.970617,0.13908,-0.30866,0.037332,0.340599354,1757,
0.976134,0.138104,-0.308904,0.0366,0.340343879,1758,
0.981635,0.139324,-0.306464,0.039284,0.338931546,1759,
0.987135,0.141032,-0.309392,0.04026,0.342394951,1760,
0.992682,0.141032,-0.305488,0.03904,0.3387286,1761,
0.998188,0.140544,-0.305976,0.039528,0.3390227,1762,
0.003803,0.138104,-0.308416,0.040748,0.340372654,1763,
0.00932,0.139812,-0.306952,0.039528,0.339601809,1764,
0.014735,0.1403,-0.30744,0.040992,0.340417079,1765,
0.020191,0.143228,-0.30744,0.039528,0.341461676,1766,
0.025687,0.140056,-0.307196,0.040504,0.340037703,1767,
0.031185,0.140788,-0.307684,0.039772,0.340694169,1768,
0.03668,0.142008,-0.305732,0.037332,0.339163686,1769,
0.042283,0.142252,-0.305976,0.038552,0.339622144,1770,
0.047793,0.142984,-0.305976,0.040748,0.340185444,1771,
0.053393,0.1403,-0.307684,0.03782,0.340270314,1772,
0.058876,0.140544,-0.307684,0.03782,0.340370992,1773,
0.064453,0.142496,-0.309392,0.03782,0.342722734,1774,
0.070017,0.139568,-0.307684,0.038064,0.33999638,1775,
0.075515,0.14152,-0.308172,0.038064,0.341242963,1776,
0.081058,0.1403,-0.311344,0.037576,0.343556592,1777,
0.086558,0.141032,-0.310368,0.035624,0.342764336,1778,
0.092126,0.138592,-0.310368,0.036112,0.341818833,1779,
0.097621,0.13786,-0.308172,0.036844,0.339606893,1780,
0.103224,0.13786,-0.308416,0.038308,0.339990164,1781,
0.108638,0.13908,-0.307684,0.038552,0.33985136,1782,
0.114313,0.137128,-0.305976,0.0366,0.337290618,1783,
0.119826,0.138348,-0.308416,0.038308,0.340188332,1784,
0.125318,0.139568,-0.307684,0.037332,0.339915208,1785,
0.130827,0.138104,-0.306952,0.038552,0.338789761,1786,
0.136325,0.136396,-0.30866,0.034648,0.339227576,1787,
0.141812,0.136396,-0.30866,0.037576,0.339539129,1788,
0.147596,0.138348,-0.30866,0.0366,0.340221582,1789,
0.153215,0.137372,-0.306952,0.03782,0.33840944,1790,
0.158708,0.137616,-0.308416,0.036356,0.339676834,1791,
0.164295,0.1403,-0.308416,0.036844,0.340825468,1792,
0.169787,0.139812,-0.306952,0.037332,0.339353214,1793,
0.175291,0.139324,-0.308172,0.03904,0.340448645,1794,
0.180798,0.13908,-0.30866,0.03782,0.340653188,1795,
0.186291,0.138836,-0.306708,0.036356,0.338625148,1796,
0.191778,0.138348,-0.306952,0.036844,0.338699247,1797,
0.197281,0.13664,-0.307196,0.03904,0.338473032,1798,
0.202846,0.137372,-0.306708,0.0366,0.338053877,1799,
0.208334,0.138592,-0.307928,0.037088,0.339710046,1800,
0.213917,0.136396,-0.308416,0.0366,0.339210639,1801,
0.219427,0.139324,-0.308416,0.039284,0.340697577,1802,
0.22493,0.140544,-0.3111,0.038308,0.343516126,1803,
0.230447,0.138348,-0.307684,0.037332,0.339416103,1804,
0.236044,0.138104,-0.308904,0.039284,0.340642964,1805,
0.241588,0.137616,-0.309636,0.039772,0.341166276,1806,
0.247089,0.13908,-0.305976,0.038552,0.338305802,1807,
0.252646,0.139812,-0.306464,0.039772,0.339189314,1808,
0.258172,0.141276,-0.302804,0.040748,0.336614869,1809,
0.263785,0.142252,-0.304268,0.038796,0.338112077,1810,
0.269293,0.143472,-0.302316,0.037088,0.336681895,1811,
0.274793,0.14274,-0.302316,0.036844,0.3363438,1812,
0.280291,0.142008,-0.304268,0.037332,0.337844589,1813,
0.285788,0.139324,-0.303536,0.037576,0.336091113,1814,
0.291296,0.138836,-0.306708,0.0366,0.338651432,1815,
0.296772,0.138592,-0.30866,0.039284,0.34061998,1816,
0.302364,0.139812,-0.312076,0.038308,0.344102206,1817,
0.307869,0.137372,-0.310368,0.038552,0.341592767,1818,
0.313481,0.137372,-0.310612,0.03782,0.341732693,1819,
0.31903,0.136884,-0.308416,0.03782,0.339540883,1820,
0.324548,0.139324,-0.308172,0.037332,0.340257016,1821,
0.330097,0.139568,-0.30988,0.037332,0.341904255,1822,
0.3356,0.140056,-0.307196,0.03538,0.339465477,1823,
0.341101,0.1403,-0.308904,0.037088,0.341293555,1824,
0.346596,0.13908,-0.309148,0.036356,0.340936198,1825,
0.352163,0.13786,-0.310612,0.035868,0.341718755,1826,
0.357673,0.138592,-0.3111,0.036356,0.342509432,1827,
0.363262,0.138104,-0.310368,0.036112,0.341621262,1828,
0.368777,0.13908,-0.312076,0.037576,0.343724646,1829,
0.374391,0.1403,-0.311344,0.037088,0.343503561,1830,
0.379889,0.140788,-0.309392,0.03904,0.342153171,1831,
0.385386,0.1403,-0.30866,0.03782,0.341153101,1832,
0.390889,0.14152,-0.305,0.039528,0.338548923,1833,
0.396383,0.140788,-0.305,0.038552,0.338130918,1834,
0.401904,0.13908,-0.306464,0.038308,0.338719549,1835,
0.407409,0.140544,-0.304512,0.039284,0.337673521,1836,
0.412973,0.137372,-0.304756,0.040016,0.336672788,1837,
0.418483,0.136152,-0.304024,0.03782,0.335258575,1838,
0.424086,0.138592,-0.30622,0.039772,0.338467492,1839,
0.429575,0.137128,-0.305732,0.040016,0.337457293,1840,
0.435083,0.137128,-0.306952,0.040504,0.338621016,1841,
0.440586,0.139324,-0.307928,0.039284,0.340255878,1842,
0.446076,0.138104,-0.305732,0.038308,0.337657035,1843,
0.451589,0.136884,-0.30866,0.03782,0.339762531,1844,
0.45708,0.138104,-0.30744,0.040504,0.339459338,1845,
0.462616,0.138592,-0.306952,0.03782,0.338906514,1846,
0.468099,0.1403,-0.306464,0.039284,0.339333915,1847,
0.473717,0.139812,-0.308172,0.038308,0.340565529,1848,
0.479245,0.138104,-0.307928,0.037332,0.339537989,1849,
0.484744,0.140056,-0.307928,0.038796,0.340500317,1850,
0.490261,0.138348,-0.309636,0.038796,0.341349896,1851,
0.495772,0.139812,-0.30866,0.03904,0.341090182,1852,
0.501267,0.139324,-0.30988,0.03904,0.341995487,1853,
0.506744,0.13664,-0.307684,0.037576,0.338750482,1854,
0.51233,0.138348,-0.306708,0.03904,0.338724206,1855,
0.517829,0.138104,-0.30744,0.038796,0.33925978,1856,
0.523431,0.1403,-0.306464,0.037088,0.339086704,1857,
0.528973,0.139324,-0.306708,0.03782,0.338985732,1858,
0.534477,0.138592,-0.307684,0.038308,0.339624335,1859,
0.540041,0.13786,-0.308172,0.038552,0.339796436,1860,
0.54556,0.137372,-0.310368,0.038796,0.341620391,1861,
0.551073,0.140788,-0.310368,0.038308,0.342953436,1862,
0.556561,0.1403,-0.30866,0.037576,0.341126137,1863,
0.56211,0.140056,-0.30744,0.03782,0.339949098,1864,
0.567705,0.13786,-0.30866,0.0366,0.340023433,1865,
0.573303,0.138592,-0.309148,0.038308,0.340951215,1866,
0.578794,0.139324,-0.310124,0.03904,0.342216589,1867,
0.584365,0.13908,-0.310612,0.038552,0.342504478,1868,
0.589879,0.137616,-0.31232,0.03782,0.343383602,1869,
0.59536,0.138836,-0.30866,0.037332,0.340499793,1870,
0.600872,0.13908,-0.308172,0.038308,0.340265677,1871,
0.606373,0.14274,-0.308904,0.038064,0.342410947,1872,
0.611862,0.140788,-0.310124,0.03782,0.342678433,1873,
0.617358,0.142496,-0.307684,0.039772,0.341403523,1874,
0.622917,0.142252,-0.308904,0.03904,0.342317739,1875,
0.628405,0.14274,-0.310612,0.039772,0.344145804,1876,
0.634013,0.140056,-0.307928,0.043432,0.341059635,1877,
0.639575,0.142008,-0.37332,0.045628,0.402014936,1878,
0.645075,0.14274,-0.310856,0.046116,0.345156263,1879,
0.650567,0.139568,-0.311832,0.0488,0.34510848,1880,
0.656062,0.141276,-0.305732,0.050996,0.34063405,1881,
0.6616,0.139568,-0.306952,0.052704,0.34128649,1882,
0.667103,0.14396,-0.299876,0.053924,0.336983523,1883,
0.672642,0.142496,-0.302804,0.056608,0.339411016,1884,
0.678146,0.142008,-0.30012,0.054656,0.336490066,1885,
0.683753,0.141032,-0.30378,0.05368,0.339195896,1886,
0.689259,0.136884,-0.301584,0.056852,0.336039117,1887,
0.694774,0.136884,-0.295972,0.056852,0.331011789,1888,
0.700273,0.136152,-0.298168,0.054656,0.332308293,1889,
0.705777,0.1342,-0.297192,0.055388,0.330757548,1890,
0.71129,0.13176,-0.293044,0.052704,0.325596676,1891,
0.716777,0.130296,-0.296216,0.054656,0.328189343,1892,
0.722386,0.128832,-0.29524,0.053192,0.326486953,1893,
0.727874,0.12932,-0.282064,0.050996,0.314458828,1894,
0.733482,0.130784,-0.284504,0.054412,0.317817001,1895,
0.739036,0.13298,-0.287432,0.052948,0.321098623,1896,
0.744528,0.133712,-0.283284,0.0488,0.317033379,1897,
0.750094,0.135176,-0.292556,0.052948,0.326596165,1898,
0.755594,0.134444,-0.287188,0.05124,0.321212817,1899,
0.761094,0.133956,-0.28182,0.05124,0.316215528,1900,
0.766583,0.133224,-0.292312,0.051484,0.325339118,1901,
0.772154,0.13054,-0.28792,0.052216,0.320413996,1902,
0.777657,0.131028,-0.277916,0.052216,0.311660313,1903,
0.783255,0.132736,-0.280112,0.052216,0.31433754,1904,
0.788746,0.130296,-0.277428,0.050264,0.310595899,1905,
0.794331,0.135664,-0.278404,0.051484,0.313949216,1906,
0.799831,0.135908,-0.28426,0.054168,0.319701274,1907,
0.805351,0.138836,-0.283284,0.05124,0.319610383,1908,
0.810835,0.140788,-0.285236,0.052216,0.322346626,1909,
0.816326,0.144692,-0.286944,0.049288,0.325118349,1910,
0.82183,0.147376,-0.290848,0.050996,0.330019449,1911,
0.827305,0.1464,-0.293044,0.051972,0.331675798,1912,
0.837686,0.148108,-0.296948,0.05246,0.335955571,1913,
0.843304,0.15006,-0.296704,0.05124,0.336417605,1914,
0.848786,0.148352,-0.2928,0.050264,0.332064189,1915,
0.854372,0.147864,-0.30012,0.052704,0.338693798,1916,
0.859868,0.147864,-0.2928,0.052948,0.33226359,1917,
0.865362,0.1464,-0.289384,0.050996,0.328293545,1918,
0.870877,0.14274,-0.289872,0.05246,0.327341619,1919,
0.876362,0.140788,-0.288408,0.051728,0.325078793,1920,
0.881858,0.139324,-0.283528,0.05246,0.320236405,1921,
0.887357,0.140544,-0.27938,0.05246,0.317108581,1922,
0.892918,0.138348,-0.279136,0.05246,0.315925825,1923,
0.898427,0.13664,-0.279868,0.052216,0.315789642,1924,
0.90401,0.137128,-0.280112,0.05246,0.316257605,1925,
0.909563,0.13908,-0.281576,0.049044,0.317857836,1926,
0.915148,0.138592,-0.275232,0.049288,0.312073234,1927,
0.920654,0.137616,-0.272548,0.046604,0.308856777,1928,
0.926152,0.137616,-0.276452,0.044652,0.312021911,1929,
0.931655,0.134444,-0.278892,0.042456,0.312503518,1930,
0.937155,0.133468,-0.276208,0.040748,0.30945915,1931,
0.942698,0.133468,-0.273524,0.040016,0.30696965,1932,
0.948203,0.130784,-0.2745,0.038552,0.306497898,1933,
0.953826,0.130052,-0.27816,0.037576,0.309351683,1934,
0.959332,0.127856,-0.282064,0.033672,0.311514142,1935,
0.964837,0.125172,-0.27938,0.032452,0.307854424,1936,
0.970317,0.125172,-0.281576,0.030988,0.309698772,1937,
0.975749,0.125416,-0.279868,0.029524,0.308102154,1938,
0.981286,0.125904,-0.283528,0.022692,0.31105445,1939,
0.986773,0.125416,-0.288896,0.022448,0.315743542,1940,
0.992351,0.124196,-0.290116,0.021228,0.316295065,1941,
0.997856,0.062464,-0.2989,0.020252,0.306027948,1942,
0.003439,0.122976,-0.303292,0.017568,0.3277465,1943,
0.008995,0.122488,-0.306708,0.018544,0.330782387,1944,
0.014482,0.123464,-0.372832,0.01464,0.393015762,1945,
0.020032,0.12444,-0.315492,0.015128,0.339483979,1946,
0.025548,0.12322,-0.31598,0.015372,0.339503796,1947,
0.031084,0.11956,-0.320372,0.008784,0.342067202,1948,
0.036598,0.120048,-0.32086,0.011468,0.342774236,1949,
0.042156,0.118828,-0.318176,0.010248,0.339795648,1950,
0.047644,0.118584,-0.320372,0.012444,0.341840952,1951,
0.053234,0.118828,-0.31964,0.011468,0.341205712,1952,
0.058725,0.11712,-0.322568,0.00976,0.343311035,1953,
0.06431,0.126148,-0.32452,0.00976,0.348312799,1954,
0.06981,0.121024,-0.322812,0.007564,0.344835628,1955,
0.075289,0.126148,-0.320372,0.00488,0.344347718,1956,
0.080781,0.127856,-0.329644,0.00488,0.353604494,1957,
0.086257,0.129808,-0.33428,0.001952,0.358604302,1958,
0.091763,0.134444,-0.335012,0.001464,0.36098528,1959,
0.097268,0.138836,-0.342576,-0.00122,0.369642042,1960,
0.102815,0.142984,-0.352824,-0.061732,0.385668302,1961,
0.108302,0.146156,-0.363316,-0.004148,0.391634138,1962,
0.113895,0.147376,-0.36844,-0.002928,0.396832826,1963,
0.119395,0.15128,-0.374296,-0.002196,0.403717669,1964,
0.124899,0.157624,-0.379908,-0.005612,0.411347673,1965,
0.130392,0.156648,-0.38552,-0.007076,0.416190264,1966,
0.135883,0.15738,-0.389424,-0.010492,0.420154255,1967,
0.141361,0.155428,-0.410896,-0.000732,0.439310735,1968,
0.147102,0.142984,-0.409676,-0.003904,0.43392867,1969,
0.152662,0.145424,-0.393084,-0.016836,0.419459917,1970,
0.161062,0.15006,-0.385032,-0.026108,0.414064334,1971,
0.166563,0.144936,-0.394304,-0.0122,0.420274825,1972,
0.172134,0.123952,-0.42578,0.000732,0.443456021,1973,
0.177632,0.09394,-0.435784,0.009516,0.445895697,1974,
0.183234,0.10492,-0.423096,0.018056,0.436284828,1975,
0.188723,0.078324,-0.420168,0.034892,0.428827761,1976,
0.194312,0.080276,-0.396744,0.04148,0.406903709,1977,
0.199815,0.084424,-0.393816,0.043676,0.40512473,1978,
0.205306,0.089304,-0.404064,0.043676,0.416113582,1979,
0.210813,0.091988,-0.39894,0.049776,0.4124228,1980,
0.216319,0.098332,-0.396744,0.05002,0.411797261,1981,
0.221844,0.11224,-0.424072,0.04026,0.440517589,1982,
0.227332,0.112728,-0.43676,0.0427,0.453089604,1983,
0.232884,0.111264,-0.447008,0.038308,0.462237312,1984,
0.238394,0.117852,-0.46238,0.037576,0.478640067,1985,
0.244,0.11834,-0.494832,0.03904,0.510281477,1986,
0.249556,0.11712,-0.49654,0.04026,0.511751828,1987,
0.255037,0.116876,-0.517524,0.032696,0.531563842,1988,
0.260539,0.116632,-0.52948,0.033428,0.543203024,1989,
0.266141,0.119316,-0.52216,0.037088,0.536901195,1990,
0.271639,0.132736,-0.519232,0.036356,0.537161497,1991,
0.27714,0.131028,-0.532164,0.033184,0.549061051,1992,
0.282685,0.127612,-0.518256,0.033916,0.53481249,1993,
0.288177,0.133224,-0.510692,0.0366,0.529050577,1994,
0.293785,0.137616,-0.500688,0.035624,0.520476422,1995,
0.299293,0.138104,-0.496296,0.03294,0.51620488,1996,
0.304783,0.1403,-0.484096,0.031476,0.504998778,1997,
0.310281,0.144448,-0.474336,0.030012,0.496750023,1998,
0.315783,0.138836,-0.461648,0.029036,0.482946581,1999,
0.321291,0.122244,-0.437492,0.029768,0.455224098,2000,
0.32678,0.124196,-0.404308,0.031964,0.424159525,2001,
0.332361,0.126636,-0.40382,0.03782,0.424897189,2002,
0.337848,0.074908,-0.474336,0.030744,0.481197509,2003,
0.343461,0.11712,-0.484096,0.03172,0.499071328,2004,
0.348999,0.18178,-0.455792,0.029768,0.49160599,2005,
0.354506,0.1403,-0.534604,0.02562,0.553300923,2006,
0.360061,0.137128,-0.512888,0.024888,0.531486219,2007,
0.365564,0.12322,-0.499956,0.026596,0.515603062,2008,
0.371087,0.132492,-0.4819,0.019276,0.500153281,2009,
0.376582,0.128588,-0.49166,0.024888,0.508806291,2010,
0.382168,0.121756,-0.48068,0.018544,0.496207281,2011,
0.387665,0.113704,-0.455304,0.01952,0.469692838,2012,
0.39325,0.12078,-0.446032,0.022204,0.462628762,2013,
0.398749,0.116388,-0.43188,0.017812,0.447642456,2014,
0.404326,0.115168,-0.421876,0.02074,0.437804951,2015,
0.409855,0.118584,-0.406748,0.018544,0.424087232,2016,
0.415354,0.111996,-0.402844,0.0183,0.418522738,2017,
0.420853,0.111996,-0.383324,0.01708,0.399715048,2018,
0.426338,0.114924,-0.376736,0.013664,0.394111969,2019,
0.431829,0.112728,-0.386496,0.016104,0.402921951,2020,
0.437327,0.110776,-0.320616,0.017812,0.33968104,2021,
0.44288,0.112728,-0.375516,0.016592,0.392422174,2022,
0.448371,0.113216,-0.380884,0.01708,0.397721272,2023,
0.453976,0.110776,-0.378932,0.018788,0.395238879,2024,
0.459453,0.109312,-0.374052,0.018056,0.390115408,2025,
0.464976,0.110044,-0.372588,0.017568,0.388896046,2026,
0.470466,0.108824,-0.371612,0.01586,0.387543135,2027,
0.475967,0.10614,-0.371856,0.016836,0.387073682,2028,
0.481462,0.10614,-0.365024,0.025132,0.380972227,2029,
0.486952,0.102724,-0.366488,0.021228,0.381203754,2030,
0.492537,0.101748,-0.35624,0.020496,0.371052125,2031,
0.498032,0.10248,-0.350384,0.023668,0.365829567,2032,
0.503632,0.101748,-0.34648,0.022692,0.361823124,2033,
0.509126,0.098088,-0.343064,0.029524,0.358030488,2034,
0.514589,0.09516,-0.330864,0.050264,0.347926547,2035,
0.520145,0.093208,-0.329156,0.033916,0.343775652,2036,
0.525657,0.091012,-0.326472,0.035868,0.34081324,2037,
0.53115,0.089304,-0.325984,0.042456,0.340651265,2038,
0.536652,0.086864,-0.331108,0.039528,0.34458718,2039,
0.542235,0.087596,-0.325984,0.03904,0.3397981,2040,
0.547726,0.084668,-0.3294,0.04026,0.342481967,2041,
0.553334,0.083448,-0.328424,0.040992,0.341330099,2042,
0.558808,0.08052,-0.325984,0.03538,0.33764002,2043,
0.564376,0.085644,-0.30866,0.049044,0.324054323,2044,
0.569864,0.074664,-0.309148,0.049288,0.32183304,2045,
0.575373,0.071736,-0.298168,0.05002,0.310728515,2046,
0.580882,0.074908,-0.30012,0.0488,0.313152779,2047,
0.586386,0.07198,-0.30988,0.050752,0.322152914,2048,
0.591878,0.070272,-0.2501,0.050752,0.264695919,2049,
0.597364,0.066124,-0.307928,0.048068,0.318594679,2050,
0.602927,0.068076,-0.374052,0.048068,0.383222877,2051,
0.608422,0.066856,-0.315004,0.042456,0.324807261,2052,
0.614115,0.069784,-0.317688,0.041724,0.327927376,2053,
0.619631,0.072224,-0.322324,0.040016,0.332731645,2054,
0.625134,0.071004,-0.322812,0.03538,0.332416756,2055,
0.630642,0.075884,-0.321836,0.03294,0.332297812,2056,
0.636134,0.082472,-0.330376,0.029036,0.34174994,2057,
0.641644,0.073932,-0.330376,0.029524,0.339832177,2058,
0.647137,0.079788,-0.316468,0.032696,0.328004799,2059,
0.652699,0.078324,-0.303048,0.033428,0.314785912,2060,
0.658187,0.072712,-0.321836,0.031232,0.331422515,2061,
0.663787,0.073444,-0.255956,0.03294,0.268314254,2062,
0.669297,0.077348,-0.307196,0.029768,0.318179555,2063,
0.674796,0.087108,-0.282308,0.037332,0.297790679,2064,
0.680304,0.078568,-0.293776,0.033672,0.305959266,2065,
0.685814,0.076128,-0.2989,0.034404,0.310355148,2066,
0.691316,0.079056,-0.314272,0.030256,0.325472221,2067,
0.6968,0.071492,-0.370636,0.039772,0.379557588,2068,
0.70239,0.080276,-0.366244,0.031964,0.376298553,2069,
0.707884,0.084912,-0.382104,0.038064,0.393271386,2070,
0.713505,0.079544,-0.377956,0.036844,0.387989003,2071,
0.719046,0.089304,-0.33184,0.040748,0.346054027,2072,
0.72456,0.085156,-0.321348,0.040016,0.334839307,2073,
0.73007,0.071004,-0.29402,0.088816,0.315242145,2074,
0.735578,0.0549,-0.251808,0.1159,0.282584658,2075,
0.741055,0.0549,-0.220576,0.210328,0.309686373,2076,
0.74683,0.01464,-0.208132,0.261324,0.334400197,2077,
0.752402,0.002684,-0.228872,0.294752,0.373186733,2078,
0.757905,-0.001464,-0.268156,0.276696,0.385318647,2079,
0.763528,0.030744,-0.288164,0.195932,0.349818572,2080,
0.769076,0.0671,-0.313296,0.14762,0.35277253,2081,
0.774573,0.108092,-0.32452,0.105164,0.357849937,2082,
0.780079,0.120292,-0.334524,0.087108,0.366011305,2083,
0.785588,0.132736,-0.331596,0.078324,0.365662962,2084,
0.791083,0.148352,-0.316224,0.077592,0.357807843,2085,
0.796567,0.14884,-0.308904,0.083692,0.35295804,2086,
0.802135,0.152744,-0.29646,0.090036,0.345435584,2087,
0.80762,0.133468,-0.371124,0.092476,0.405090781,2088,
0.813224,0.109556,-0.32086,0.094428,0.351952133,2089,
0.81872,0.083448,-0.318664,0.088084,0.340982558,2090,
0.824308,0.066612,-0.313296,0.0854,0.331488615,2091,
0.829819,0.059292,-0.296948,0.08296,0.313968179,2092,
0.835328,0.048068,-0.285236,0.075884,0.299045966,2093,
0.840842,0.044408,-0.284992,0.0732,0.297574781,2094,
0.846332,0.044164,-0.277916,0.067344,0.289349229,2095,
0.851836,0.043188,-0.28304,0.063928,0.293366041,2096,
0.857328,0.042456,-0.271572,0.055388,0.280395602,2097,
0.862887,0.04148,-0.250344,0.056364,0.25994155,2098,
0.868378,0.045872,-0.240828,0.053192,0.250862023,2099,
0.873985,0.04514,-0.2379,0.050752,0.247406134,2100,
0.879462,0.043188,-0.233752,0.05124,0.243168128,2101,
0.884964,0.042944,-0.225212,0.051728,0.235032802,2102,
0.890439,0.046604,-0.222528,0.051484,0.233112089,2103,
0.895948,0.038552,-0.21228,0.050996,0.221697197,2104,
0.901454,0.043188,-0.214476,0.05124,0.224701347,2105,
0.906964,0.041724,-0.212036,0.049532,0.221706059,2106,
0.912523,0.038796,-0.204228,0.050264,0.213870698,2107,
0.918026,0.04026,-0.198128,0.049532,0.20815617,2108,
0.923618,0.040016,-0.198128,0.050996,0.208462411,2109,
0.929124,0.033184,-0.197152,0.05124,0.206387079,2110,
0.934611,0.028792,-0.188124,0.053192,0.197608217,2111,
0.940118,0.03172,-0.183976,0.050752,0.193465998,2112,
0.945602,0.0305,-0.179584,0.052948,0.189694897,2113,
0.951097,0.031476,-0.176656,0.053436,0.187225765,2114,
0.956582,0.030012,-0.1769,0.051484,0.186667974,2115,
0.962136,0.030012,-0.173484,0.05246,0.183710288,2116,
0.967728,0.03172,-0.164944,0.048556,0.174843835,2117,
0.97334,0.038552,-0.163968,0.04392,0.174071043,2118,
0.978819,0.04148,-0.174216,0.040748,0.183663291,2119,
0.98441,0.041968,-0.179096,0.03782,0.187795215,2120,
0.989904,0.047092,-0.18788,0.033428,0.19655529,2121,
0.99539,0.046604,-0.204228,0.030012,0.211616939,2122,
0.000906,0.0488,-0.218136,0.026352,0.225075948,2123,
0.006407,0.049532,-0.245464,0.027328,0.25189842,2124,
0.011865,0.047824,-0.262788,0.035136,0.269405283,2125,
0.017297,0.029036,-0.28426,0.040504,0.288595584,2126,
0.023031,0.052948,-0.293776,0.042212,0.301479157,2127,
0.028524,0.057096,-0.32696,0.046116,0.335096225,2128,
0.034104,0.046604,-0.33062,0.052216,0.337946783,2129,
0.039599,0.045628,-0.324032,0.055876,0.331965026,2130,
0.045088,0.039772,-0.33428,0.060756,0.342076339,2131,
0.050581,0.036844,-0.339648,0.071736,0.349090673,2132,
0.056074,0.036356,-0.341844,0.069052,0.350638358,2133,
0.061568,0.033184,-0.339648,0.0793,0.350357577,2134,
0.067054,0.03416,-0.340868,0.081984,0.352248883,2135,
0.072614,0.030744,-0.337208,0.082228,0.348447805,2136,
0.078108,0.026596,-0.337696,0.087108,0.349762404,2137,
0.083693,0.034404,-0.324276,0.0854,0.337093043,2138,
0.089195,0.034648,-0.320372,0.085888,0.333489806,2139,
0.094681,0.037576,-0.319396,0.08174,0.331824032,2140,
0.10018,0.037332,-0.319152,0.079544,0.331027076,2141,
0.105683,0.034648,-0.323788,0.077348,0.334696678,2142,
0.11117,0.036844,-0.304512,0.072224,0.315121159,2143,
0.116669,0.051972,-0.297192,0.06954,0.309612637,2144,
0.122269,0.051728,-0.31964,0.070028,0.331284525,2145,
0.127763,0.04514,-0.320372,0.069296,0.330874256,2146,
0.133347,0.115168,-0.30866,0.069052,0.336604876,2147,
0.138814,0.067832,-0.319884,0.071492,0.334720868,2148,
0.144436,0.070028,-0.330132,0.069296,0.344518496,2149,
0.149928,0.076128,-0.330132,0.068564,0.345664045,2150,
0.155434,0.084424,-0.32452,0.068808,0.342308608,2151,
0.160902,0.083692,-0.330132,0.077104,0.349194094,2152,
0.166388,0.085644,-0.316712,0.073444,0.336207387,2153,
0.171881,0.086132,-0.345748,0.094672,0.368677621,2154,
0.177368,0.095648,-0.313052,0.097844,0.341648274,2155,
0.182899,0.124684,-0.282308,0.112728,0.328559749,2156,
0.188401,0.149328,-0.300364,0.116388,0.355054293,2157,
0.193999,0.147864,-0.33428,0.116876,0.383753671,2158,
0.199557,0.142496,-0.336232,0.122976,0.38533124,2159,
0.205038,0.138836,-0.334036,0.133956,0.385745634,2160,
0.210525,0.13908,-0.332328,0.142252,0.387325157,2161,
0.216036,0.13542,-0.352336,0.144448,0.404158951,2162,
0.221495,0.130784,-0.352824,0.152012,0.405828631,2163,
0.226924,0.132736,-0.346724,0.151524,0.400993641,2164,
0.232519,0.137372,-0.349408,0.145668,0.402711042,2165,
0.238015,0.138836,-0.359168,0.137372,0.408837564,2166,
0.243616,0.13664,-0.356484,0.124196,0.401467282,2167,
0.249126,0.120536,-0.347456,0.118584,0.386415274,2168,
0.254624,0.120292,-0.35868,0.107604,0.393319372,2169,
0.260126,0.10248,-0.37942,0.099064,0.405308972,2170,
0.265605,0.100528,-0.355508,0.091744,0.380668857,2171,
0.271112,0.104676,-0.357948,0.074664,0.380340043,2172,
0.276587,0.10614,-0.383568,0.07442,0.404880781,2173,
0.282145,0.107848,-0.372344,0.05734,0.391866203,2174,
0.28763,0.114924,-0.357948,0.061,0.380861256,2175,
0.293207,0.10858,-0.350628,0.055632,0.371247263,2176,
0.2987,0.102724,-0.3416,0.049776,0.360167226,2177,
0.304294,0.110044,-0.324764,0.04636,0.346021079,2178,
0.309888,0.100772,-0.33184,0.051484,0.350604312,2179,
0.31539,0.084668,-0.258396,0.043676,0.275399267,2180,
0.320885,0.090036,-0.294752,0.04636,0.311664038,2181,
0.32638,0.093208,-0.287676,0.0427,0.305398923,2182,
0.336354,0.088328,-0.299632,0.04758,0.315982638,2183,
0.341905,0.079056,-0.2806,0.045628,0.295073085,2184,
0.347407,0.08784,-0.282552,0.044652,0.299241206,2185,
0.352954,0.087352,-0.298656,0.044652,0.314355816,2186,
0.358452,0.08296,-0.301828,0.044896,0.316224847,2187,
0.364043,0.087352,-0.301096,0.042456,0.3163727,2188,
0.36955,0.092232,-0.30378,0.043676,0.320463139,2189,
0.375031,0.091744,-0.311588,0.043188,0.327672469,2190,
0.380566,0.099064,-0.373076,0.0427,0.388358942,2191,
0.386061,0.102968,-0.322812,0.044896,0.34179767,2192,
0.391612,0.101016,-0.257908,0.040992,0.280001987,2193,
0.397095,0.101016,-0.310124,0.039528,0.328547699,2194,
0.402638,0.109556,-0.370148,0.03904,0.387989923,2195,
0.408117,0.112728,-0.316224,0.038064,0.337866968,2196,
0.413709,0.10858,-0.305244,0.039528,0.326383178,2197,
0.419233,0.1159,-0.304024,0.04026,0.327847938,2198,
0.424715,0.113216,-0.302804,0.038308,0.325538981,2199,
0.43022,0.113704,-0.299632,0.042456,0.323280756,2200,
0.435723,0.103212,-0.29768,0.041968,0.317848096,2201,
0.441211,0.102724,-0.302072,0.029036,0.320379155,2202,
0.446717,0.11468,-0.295728,0.02562,0.318218379,2203,
0.45231,0.115656,-0.303048,0.031964,0.325938795,2204,
0.457801,0.116632,-0.308172,0.027084,0.330615408,2205,
0.463408,0.11834,-0.307928,0.024156,0.330768078,2206,
0.468873,0.121024,-0.30622,0.021228,0.329951701,2207,
0.474446,0.127124,-0.306708,0.021716,0.33271894,2208,
0.479939,0.128832,-0.30744,0.020008,0.333942148,2209,
0.485424,0.135908,-0.312564,0.021472,0.341508836,2210,
0.490913,0.13298,-0.321836,0.023668,0.349030465,2211,
0.496403,0.133468,-0.3233,0.023912,0.350582916,2212,
0.501908,0.136396,-0.316468,0.023912,0.345438341,2213,
0.507397,0.136396,-0.319152,0.027084,0.348131313,2214,
0.512951,0.133468,-0.320372,0.029036,0.348274338,2215,
0.518447,0.13298,-0.315736,0.030744,0.343973975,2216,
0.524039,0.133224,-0.31232,0.03538,0.341385648,2217,
0.529544,0.134444,-0.312808,0.036112,0.342385909,2218,
0.535046,0.129808,-0.30744,0.047336,0.337061074,2219,
0.540556,0.120292,-0.305976,0.058804,0.333990102,2220,
0.54604,0.087108,-0.299876,0.045384,0.315552098,2221,
0.551573,0.100528,-0.311832,0.043188,0.330469784,2222,
0.557351,0.097112,-0.33184,0.049776,0.349322453,2223,
