time,ACCx,ACCy,ACCz,ACCnorm,,
0.233094,0.116632,0.122488,-0.245708,0.298293069,1,0.344605384
0.240428,0.160796,0.184708,-0.0976,0.263625035,2,
0.247685,0.252052,0.0427,-0.198128,0.323431917,3,
0.254947,0.174948,0.091744,-0.205692,0.285189346,4,
0.262364,0.0671,-0.375272,-0.133956,0.404073872,5,
0.274714,0.092476,-0.307684,0.000244,0.32128074,6,
0.281863,0.079544,-0.328424,0.002684,0.337930134,7,
0.291072,0.090524,-0.329888,0.004636,0.342114279,8,
0.257866,0.0854,-0.330132,0.00854,0.341105891,9,
0.264265,0.086864,-0.329156,0.008784,0.340538082,10,
0.271622,0.08906,-0.328424,0.008784,0.34039854,11,
0.278774,0.08662,-0.32818,0.007076,0.339492572,12,
0.285533,0.088572,-0.329156,0.006588,0.340928252,13,
0.292686,0.086864,-0.329156,0.00732,0.340503464,14,
0.301135,0.088816,-0.327692,0.006344,0.339574108,15,
0.307874,0.085888,-0.329156,0.005612,0.340223332,16,
0.315904,0.087108,-0.328912,0.006344,0.340310379,17,
0.322717,0.0854,-0.329888,0.00732,0.340841363,18,
0.329913,0.085888,-0.33062,0.008052,0.3416887,19,
0.336653,0.08418,-0.329888,0.007564,0.340543065,20,
0.343882,0.083204,-0.330376,0.00854,0.340799264,21,
0.350629,0.083692,-0.330132,0.005612,0.340621466,22,
0.357745,0.082716,-0.33062,0.006344,0.340869135,23,
0.364453,0.083448,-0.331596,0.007564,0.342018552,24,
0.370021,0.085156,-0.329156,0.006344,0.340052147,25,
0.375506,0.083204,-0.332328,0.007808,0.342674437,26,
0.381053,0.085888,-0.33062,0.007076,0.341667093,27,
0.386621,0.084912,-0.331352,0.007808,0.342147864,28,
0.395671,0.087352,-0.328912,0.008296,0.340414893,29,
0.402299,0.086864,-0.332084,0.008296,0.343356901,30,
0.408595,0.086376,-0.33062,0.0061,0.34177128,31,
0.415365,0.088328,-0.33062,0.004636,0.342246859,32,
0.421615,0.086864,-0.332328,0.0061,0.343546888,33,
0.428333,0.087596,-0.328424,0.008052,0.34000032,34,
0.436254,0.087108,-0.331596,0.00732,0.342924617,35,
0.443205,0.091744,-0.331596,0.006832,0.34412141,36,
0.450049,0.088572,-0.33184,0.005368,0.343499054,37,
0.456348,0.089548,-0.33062,0.0061,0.342586688,38,
0.463115,0.08906,-0.330864,0.00488,0.34267548,39,
0.469441,0.089792,-0.332816,0.0061,0.344769928,40,
0.476483,0.090036,-0.33184,0.00488,0.343872187,41,
0.48327,0.094184,-0.335744,0.00488,0.348738403,42,
0.48958,0.094916,-0.3355,0.005124,0.348705538,43,
0.496297,0.094672,-0.33794,0.00488,0.350984395,44,
0.503197,0.095404,-0.335256,0.005612,0.348611536,45,
0.509495,0.09638,-0.330376,0.004148,0.344172358,46,
0.515479,0.095648,-0.33062,0.001708,0.344181698,47,
0.521014,0.097112,-0.329156,0.000976,0.343184157,48,
0.526542,0.0976,-0.325984,-0.002196,0.340288335,49,
0.534407,0.092476,-0.326472,-0.00488,0.339351723,50,
0.541116,0.092232,-0.325252,-0.005612,0.338122906,51,
0.548047,0.094916,-0.323544,-0.0061,0.337234306,52,
0.554465,0.092476,-0.326228,-0.00488,0.33911699,53,
0.561422,0.090768,-0.3233,-0.005856,0.335851176,54,
0.568369,0.093208,-0.322812,-0.003172,0.336013958,55,
0.576881,0.091744,-0.320616,-0.000488,0.333484361,56,
0.583586,0.092232,-0.320372,0.000488,0.33338446,57,
0.589902,0.088816,-0.322324,0.000976,0.334338145,58,
0.597442,0.087352,-0.320372,0.00122,0.332069388,59,
0.604165,0.08418,-0.32208,0.00122,0.332901318,60,
0.610427,0.081496,-0.322324,0.000976,0.332468512,61,
0.617411,0.081008,-0.321592,0.00244,0.331646897,62,
0.624468,0.081496,-0.322812,0.001708,0.332944594,63,
0.631808,0.081008,-0.322812,0.003172,0.332836213,64,
0.638615,0.081496,-0.32208,0.00488,0.332266367,65,
0.645379,0.08296,-0.320128,0.009272,0.330832689,66,
0.651609,0.083448,-0.320128,0.009516,0.330962323,67,
0.658518,0.08418,-0.320616,0.01098,0.331664668,68,
0.665327,0.085644,-0.320616,0.010736,0.332031288,69,
0.671554,0.083692,-0.319396,0.011468,0.330378072,70,
0.679579,0.08418,-0.32086,0.0122,0.331943146,71,
0.686517,0.082716,-0.323788,0.01098,0.334366814,72,
0.69864,0.082472,-0.325008,0.013908,0.335596876,73,
0.705636,0.082472,-0.328668,0.01464,0.339173429,74,
0.711922,0.079788,-0.32696,0.018056,0.337038552,75,
0.718631,0.081008,-0.331108,0.019764,0.341446071,76,
0.725613,0.078324,-0.332816,0.02074,0.342536548,77,
0.731893,0.077348,-0.332816,0.022936,0.342454761,78,
0.738889,0.074908,-0.332816,0.02196,0.341847832,79,
0.745777,0.07442,-0.335012,0.025864,0.344151599,80,
0.752603,0.070516,-0.332328,0.023668,0.340550408,81,
0.758536,0.070516,-0.337696,0.025132,0.345894076,82,
0.764811,0.070516,-0.337452,0.026108,0.345728197,83,
0.770503,0.072224,-0.336964,0.02806,0.345757729,84,
0.776146,0.071248,-0.337696,0.022692,0.345875401,85,
0.782594,0.071492,-0.338672,0.02196,0.346831474,86,
0.789711,0.071004,-0.337696,0.022204,0.345793543,87,
0.797706,0.071492,-0.337696,0.022692,0.345925745,88,
0.805945,0.070516,-0.336964,0.02318,0.345042832,89,
0.814075,0.071492,-0.336476,0.022936,0.344751018,90,
0.820596,0.071004,-0.334036,0.022448,0.342236074,91,
0.828837,0.072956,-0.33672,0.020984,0.345171355,92,
0.835142,0.073444,-0.331596,0.02074,0.340264715,93,
0.841819,0.07076,-0.329644,0.025376,0.338106619,94,
0.848097,0.071492,-0.33062,0.022448,0.339005314,95,
0.854908,0.072224,-0.332328,0.02562,0.341049249,96,
0.86145,0.070028,-0.33184,0.02684,0.340208895,97,
0.868394,0.070516,-0.332084,0.028792,0.340707013,98,
0.875196,0.0671,-0.331352,0.028548,0.339280925,99,
0.881465,0.06832,-0.337208,0.02806,0.345201711,100,
0.888152,0.067588,-0.332084,0.030256,0.34024013,101,
0.894558,0.068564,-0.3355,0.031476,0.343877901,102,
0.901182,0.068076,-0.334524,0.03294,0.342966022,103,
0.906841,0.068076,-0.335988,0.032452,0.344347804,104,
0.912659,0.067344,-0.336232,0.034404,0.344631408,105,
0.918422,0.069052,-0.337208,0.03294,0.345778047,106,
0.924155,0.069784,-0.33672,0.03172,0.345335089,107,
0.932427,0.070272,-0.337208,0.029524,0.345715281,108,
0.943952,0.071004,-0.337452,0.02806,0.345980901,109,
0.951334,0.070028,-0.34038,0.02806,0.34863997,110,
0.958636,0.06832,-0.340624,0.02684,0.348443277,111,
0.967856,0.07076,-0.341112,0.025132,0.349279246,112,
0.974287,0.072712,-0.338184,0.029036,0.347128999,113,
0.980658,0.07076,-0.337452,0.031232,0.34620264,114,
0.987378,0.069784,-0.334036,0.027572,0.342359564,115,
0.99376,0.070028,-0.335744,0.027572,0.344075819,116,
0.000454,0.07076,-0.334524,0.031232,0.343349271,117,
0.006754,0.06832,-0.333304,0.031232,0.34166448,118,
0.017816,0.06832,-0.334036,0.034648,0.342707099,119,
0.029835,0.066856,-0.332328,0.033184,0.340606521,120,
0.036424,0.067344,-0.334524,0.035868,0.343115191,121,
0.045338,0.064904,-0.332572,0.039284,0.341115665,122,
0.053504,0.065392,-0.331352,0.035624,0.339616447,123,
0.060506,0.067588,-0.334036,0.02928,0.342060675,124,
0.066154,0.068808,-0.334524,0.027084,0.342599461,125,
0.075291,0.06954,-0.33672,0.02928,0.345070266,126,
0.08219,0.066612,-0.340136,0.028304,0.347751022,127,
0.090421,0.065392,-0.3416,0.029524,0.349053492,128,
0.098307,0.06588,-0.3416,0.032452,0.349405018,129,
0.105822,0.065636,-0.339404,0.034648,0.347424299,130,
0.112182,0.067588,-0.33916,0.034892,0.347584659,131,
0.119358,0.067832,-0.338428,0.03416,0.346845206,132,
0.125668,0.068076,-0.337452,0.03416,0.34594089,133,
0.132434,0.067344,-0.340624,0.033672,0.34884628,134,
0.13879,0.066612,-0.339892,0.032208,0.347852103,135,
0.1455,0.067588,-0.340136,0.032696,0.34832408,136,
0.153024,0.06832,-0.338916,0.033184,0.347322408,137,
0.15937,0.067344,-0.33916,0.0305,0.347123854,138,
0.166317,0.0671,-0.338672,0.025864,0.346222587,139,
0.172689,0.069784,-0.33916,0.025376,0.347193395,140,
0.179387,0.067832,-0.338672,0.028304,0.346555941,141,
0.186304,0.0671,-0.34038,0.028304,0.348083425,142,
0.192665,0.066368,-0.338428,0.028304,0.346033725,143,
0.1994,0.065392,-0.338672,0.028548,0.346106668,144,
0.206186,0.068076,-0.339648,0.030256,0.347721917,145,
0.212489,0.066124,-0.339648,0.031476,0.34745343,146,
0.21896,0.0671,-0.340868,0.031476,0.348832541,147,
0.224614,0.066368,-0.339404,0.029768,0.347110819,148,
0.230717,0.06954,-0.337452,0.03172,0.345999743,149,
0.236779,0.071736,-0.335744,0.031232,0.344739793,150,
0.242515,0.073444,-0.334768,0.030256,0.344062582,151,
0.248889,0.075884,-0.33428,0.030256,0.344117604,152,
0.257233,0.076128,-0.334036,0.02928,0.343850026,153,
0.264659,0.078812,-0.336476,0.027328,0.346661578,154,
0.273138,0.081252,-0.337208,0.026352,0.347858521,155,
0.279871,0.081008,-0.337208,0.027328,0.347876919,156,
0.287149,0.084424,-0.337452,0.023912,0.348673268,157,
0.295354,0.0854,-0.337208,0.023912,0.34867489,158,
0.302024,0.089304,-0.336476,0.023912,0.348945679,159,
0.308328,0.090036,-0.339404,0.024888,0.352024103,160,
0.31512,0.089792,-0.334768,0.024888,0.347493352,161,
0.321363,0.091744,-0.332084,0.023912,0.345352759,162,
0.328517,0.0915,-0.332084,0.025132,0.345374652,163,
0.334901,0.092232,-0.33428,0.023668,0.347577379,164,
0.341874,0.094672,-0.331352,0.021472,0.345279571,165,
0.349639,0.09516,-0.3294,0.020984,0.343511446,166,
0.355776,0.095648,-0.330864,0.02074,0.345035758,167,
0.362701,0.094916,-0.330376,0.019764,0.34430795,168,
0.368867,0.094428,-0.330132,0.018544,0.343871581,169,
0.374496,0.09272,-0.329888,0.017812,0.34313315,170,
0.380826,0.094428,-0.331108,0.02196,0.34500927,171,
0.394805,0.091744,-0.331596,0.022204,0.344769323,172,
0.403679,0.090524,-0.330376,0.022448,0.34328823,173,
0.411117,0.089792,-0.33062,0.023424,0.343396085,174,
0.419585,0.091012,-0.331352,0.022448,0.344356276,175,
0.437936,0.09028,-0.330864,0.018788,0.343474095,176,
0.444334,0.093208,-0.327204,0.020496,0.340837608,177,
0.450995,0.092964,-0.328668,0.01952,0.342119847,178,
0.458868,0.0915,-0.32696,0.0183,0.340014679,179,
0.468461,0.094428,-0.330864,0.01708,0.344498708,180,
0.475613,0.095892,-0.32696,0.018544,0.341235985,181,
0.482644,0.095892,-0.32818,0.017812,0.342366259,182,
0.489506,0.095892,-0.327448,0.016348,0.34159146,183,
0.497023,0.099064,-0.325252,0.018056,0.340482832,184,
0.506315,0.096868,-0.326472,0.017568,0.340992684,185,
0.512807,0.099064,-0.32574,0.01708,0.340898739,186,
0.51953,0.099552,-0.326472,0.014152,0.341606274,187,
0.527052,0.098332,-0.325252,0.015372,0.340138713,188,
0.534404,0.101748,-0.32574,0.013908,0.341544485,189,
0.541093,0.10126,-0.323056,0.011468,0.33874811,190,
0.548026,0.099552,-0.323544,0.012444,0.338742046,191,
0.555063,0.10248,-0.325984,0.0122,0.341930634,192,
0.561347,0.099552,-0.328912,0.01464,0.343959349,193,
0.56831,0.102236,-0.326716,0.013908,0.342620748,194,
0.576062,0.102724,-0.327936,0.01342,0.343910361,195,
0.582434,0.102236,-0.32696,0.01586,0.342938159,196,
0.589159,0.1037,-0.326228,0.016348,0.342703451,197,
0.596211,0.105164,-0.32208,0.015372,0.339162633,198,
0.603288,0.10736,-0.319884,0.01098,0.337598139,199,
0.610187,0.110044,-0.319152,0.011956,0.337802645,200,
0.616528,0.108336,-0.319396,0.00976,0.33741036,201,
0.623662,0.108336,-0.317444,0.010492,0.335585256,202,
0.630259,0.10858,-0.31842,0.009272,0.336551456,203,
0.636959,0.110044,-0.318176,0.007564,0.336753416,204,
0.643701,0.111508,-0.317444,0.005856,0.336510059,205,
0.649995,0.111264,-0.316224,0.005612,0.335274202,206,
0.657485,0.113948,-0.316224,0.007564,0.336212699,207,
0.663879,0.114924,-0.317932,0.007808,0.338155655,208,
0.671395,0.113948,-0.3172,0.00732,0.33712545,209,
0.677908,0.114924,-0.319396,0.008052,0.339538165,210,
0.684318,0.114436,-0.318908,0.007808,0.338908358,211,
0.691565,0.1159,-0.318908,0.008052,0.339411192,212,
0.697853,0.116144,-0.318664,0.007564,0.339254164,213,
0.705426,0.117608,-0.319884,0.006832,0.340887212,214,
0.711675,0.115656,-0.318176,0.006832,0.33861328,215,
0.718367,0.116876,-0.318664,0.007076,0.33949494,216,
0.726439,0.115656,-0.317688,0.008052,0.338181623,217,
0.732803,0.115168,-0.315004,0.005612,0.335444008,218,
0.740021,0.113704,-0.31598,0.006344,0.335875284,219,
0.747497,0.115656,-0.315248,0.0061,0.335849404,220,
0.753893,0.113704,-0.315492,0.005368,0.335399191,221,
0.760596,0.1159,-0.315248,0.007564,0.33596328,222,
0.767408,0.114924,-0.314028,0.007076,0.334471494,223,
0.775217,0.116388,-0.31354,0.006832,0.334514834,224,
0.781494,0.117852,-0.313784,0.008296,0.335288407,225,
0.788474,0.117852,-0.309148,0.005124,0.330889461,226,
0.795571,0.118584,-0.30866,0.003904,0.330678699,227,
0.802313,0.118828,-0.310612,0.006588,0.332630891,228,
0.808673,0.11712,-0.308904,0.005612,0.330409246,229,
0.81545,0.118584,-0.310612,0.007564,0.332564571,230,
0.821673,0.120048,-0.309392,0.003904,0.331888796,231,
0.828819,0.11956,-0.312808,0.006344,0.33493833,232,
0.835109,0.119804,-0.312564,0.007076,0.334812369,233,
0.842642,0.120048,-0.312076,0.00732,0.334449599,234,
0.848973,0.122488,-0.314028,0.00854,0.33717922,235,
0.855674,0.124196,-0.311832,0.007808,0.335745153,236,
0.861961,0.125416,-0.308416,0.006832,0.333010928,237,
0.868916,0.124928,-0.30988,0.006588,0.334179624,238,
0.875623,0.12566,-0.309148,0.005368,0.333754007,239,
0.882484,0.128588,-0.307928,0.00488,0.333733938,240,
0.888884,0.12932,-0.309636,0.002928,0.3355692,241,
0.895606,0.131516,-0.372832,0.00366,0.39536509,242,
0.902537,0.133712,-0.314272,0.002928,0.341547013,243,
0.908903,0.134932,-0.314516,0.002684,0.342248686,244,
0.91839,0.137616,-0.313784,0.005124,0.342673048,245,
0.924792,0.137128,-0.314028,0.004392,0.342690769,246,
0.932205,0.138836,-0.31476,0.00366,0.344038789,247,
0.938899,0.139812,-0.314272,0.000976,0.343969821,248,
0.945181,0.140056,-0.31232,0.001708,0.34228991,249,
0.952677,0.138836,-0.308172,0.000976,0.338003505,250,
0.958999,0.138592,-0.307684,0,0.33745694,251,
0.966313,0.139812,-0.306464,-0.000244,0.336849578,252,
0.97299,0.136152,-0.303048,-0.00244,0.33223698,253,
0.979353,0.1403,-0.303292,-0.001464,0.334174012,254,
0.986319,0.137616,-0.305488,-0.001708,0.335058202,255,
0.993104,0.134932,-0.301828,-0.001952,0.330621531,256,
0.999659,0.133712,-0.303048,-0.002928,0.33124849,257,
0.005946,0.132248,-0.299632,-0.002684,0.327530262,258,
0.012743,0.13054,-0.305244,-0.000488,0.331986188,259,
0.020927,0.063684,-0.305488,-0.001708,0.31206007,260,
0.028499,0.120292,-0.30744,0.000976,0.330137049,261,
0.034896,0.121024,-0.315492,0,0.337908287,262,
0.042294,0.11834,-0.32086,0.002196,0.341994616,263,
0.048588,0.118828,-0.327448,0.001708,0.348346384,264,
0.055363,0.121756,-0.328424,0.00244,0.350275322,265,
0.063621,0.128588,-0.325008,0.002684,0.349531512,266,
0.06992,0.132492,-0.320372,0.004148,0.346712495,267,
0.07692,0.13542,-0.315248,0.000488,0.343103652,268,
0.08391,0.13908,-0.305244,-0.00244,0.33544463,269,
0.090863,0.14152,-0.301828,-0.006832,0.333428745,270,
0.097866,0.1464,-0.299632,-0.014152,0.333785222,271,
0.104655,0.148596,-0.301584,-0.01586,0.336578698,272,
0.110899,0.150792,-0.305,-0.014884,0.340565355,273,
0.118332,0.150548,-0.30866,-0.015128,0.343750712,274,
0.125146,0.148352,-0.306464,-0.014152,0.340776728,275,
0.13139,0.15006,-0.306464,-0.011712,0.341431337,276,
0.138387,0.144448,-0.307684,-0.006588,0.339967749,277,
0.145164,0.138836,-0.305488,-0.00244,0.335565652,278,
0.151412,0.135176,-0.305732,-0.00366,0.334302262,279,
0.158421,0.127124,-0.304268,-0.003416,0.329774463,280,
0.164812,0.123464,-0.305244,-0.005612,0.329315583,281,
0.171481,0.122732,-0.305244,-0.010492,0.329161245,282,
0.178397,0.118828,-0.302072,-0.009272,0.324736134,283,
0.185051,0.120292,-0.306708,-0.009516,0.329591439,284,
0.191347,0.116876,-0.297924,-0.009516,0.320170679,285,
0.198053,0.111996,-0.298656,-0.00488,0.319002076,286,
0.204446,0.113216,-0.301584,-0.003416,0.322152822,287,
0.211117,0.110288,-0.304512,-0.001708,0.323873306,288,
0.218013,0.106872,-0.303536,-0.000732,0.32180159,289,
0.224437,0.106384,-0.308904,0.000732,0.326710533,290,
0.231171,0.105896,-0.309636,0.000976,0.327245119,291,
0.237965,0.107848,-0.311344,0.000976,0.329495417,292,
0.244366,0.11102,-0.309148,0.000976,0.328479648,293,
0.251041,0.109312,-0.30866,0.00244,0.327453909,294,
0.257342,0.111508,-0.373808,0.001952,0.390090073,295,
0.264343,0.112972,-0.31598,0.001464,0.335571418,296,
0.271041,0.116632,-0.313784,0.000732,0.334759552,297,
0.277374,0.118096,-0.316468,0.00122,0.337787135,298,
0.284159,0.121512,-0.316712,0.003172,0.339236965,299,
0.290436,0.122976,-0.32208,0.003416,0.344775713,300,
0.297135,0.12444,-0.322324,0.007808,0.345599536,301,
0.303495,0.127368,-0.32574,0.00976,0.349892001,302,
0.310206,0.12566,-0.327936,0.008784,0.351297046,303,
0.316488,0.12566,-0.3233,0.006832,0.34692939,304,
0.322072,0.127124,-0.324032,0.006344,0.348134306,305,
0.327558,0.125416,-0.323544,0.007564,0.347083718,306,
0.333284,0.125416,-0.321836,0.00854,0.345514856,307,
0.338869,0.124196,-0.327936,0.0122,0.350878193,308,
0.344346,0.119316,-0.330864,0.01098,0.351891823,309,
0.350102,0.121756,-0.328912,0.009272,0.350846971,310,
0.35753,0.120048,-0.32574,0.013664,0.347425927,311,
0.363945,0.116876,-0.322812,0.0122,0.34353519,312,
0.370687,0.116144,-0.325984,0.014396,0.346355658,313,
0.377063,0.113948,-0.323056,0.014152,0.342855079,314,
0.38384,0.110044,-0.324032,0.015372,0.342553233,315,
0.390121,0.110044,-0.322812,0.013908,0.34133664,316,
0.39682,0.10736,-0.321592,0.013664,0.33931444,317,
0.403182,0.108336,-0.32208,0.01464,0.340127248,318,
0.410361,0.105652,-0.322324,0.014396,0.339503094,319,
0.416639,0.105896,-0.32452,0.013176,0.341614988,320,
0.423431,0.107604,-0.329644,0.015616,0.347113306,321,
0.42971,0.10858,-0.32696,0.015616,0.344871451,322,
0.436392,0.104676,-0.320372,0.01708,0.337471495,323,
0.442768,0.104676,-0.321836,0.01464,0.338747407,324,
0.449478,0.10004,-0.324764,0.01708,0.340251942,325,
0.455152,0.101504,-0.32208,0.01708,0.338127661,326,
0.460943,0.098332,-0.322812,0.018544,0.337965456,327,
0.466676,0.10004,-0.325252,0.017812,0.340755238,328,
0.473831,0.098332,-0.32208,0.01952,0.337321418,329,
0.481066,0.096868,-0.322324,0.018056,0.337049239,330,
0.48737,0.095404,-0.322568,0.019276,0.336932637,331,
0.49442,0.097844,-0.324276,0.019276,0.339263816,332,
0.500687,0.0976,-0.3233,0.017568,0.338167539,333,
0.507381,0.096868,-0.323544,0.017324,0.338177838,334,
0.51375,0.09638,-0.324276,0.018788,0.338817086,335,
0.520026,0.099552,-0.325008,0.019764,0.340487028,336,
0.530682,0.097112,-0.324032,0.023424,0.339081349,337,
0.53633,0.099064,-0.32208,0.020496,0.337593377,338,
0.542599,0.098576,-0.32574,0.018788,0.340847127,339,
0.548348,0.09882,-0.325252,0.022448,0.340673111,340,
0.55408,0.097356,-0.326716,0.021228,0.341573072,341,
0.559743,0.099064,-0.32818,0.020008,0.34338915,342,
0.56545,0.098576,-0.326716,0.020496,0.341878134,343,
0.571125,0.097356,-0.328912,0.022692,0.343767685,344,
0.576763,0.098332,-0.329644,0.020008,0.344578974,345,
0.585333,0.101992,-0.327692,0.019032,0.343724646,346,
0.592143,0.099064,-0.327692,0.02074,0.342966282,347,
0.598884,0.100284,-0.32574,0.020252,0.341428721,348,
0.605823,0.100528,-0.327204,0.020496,0.342911683,349,
0.612071,0.099552,-0.330132,0.02074,0.345438686,350,
0.617821,0.099552,-0.3294,0.018788,0.344627262,351,
0.625424,0.102724,-0.327692,0.018788,0.343929144,352,
0.632259,0.101504,-0.3294,0.018788,0.345196192,353,
0.639891,0.100284,-0.328912,0.020252,0.344456279,354,
0.645529,0.102236,-0.329156,0.020496,0.34527664,355,
0.65229,0.100772,-0.327936,0.020008,0.34365293,356,
0.657947,0.101016,-0.325984,0.02074,0.341906344,357,
0.663838,0.098576,-0.325252,0.02196,0.340570599,358,
0.669549,0.098332,-0.3294,0.021228,0.344418597,359,
0.675213,0.095892,-0.3294,0.023912,0.34390612,360,
0.682844,0.096136,-0.328668,0.0244,0.343307653,361,
0.689567,0.09638,-0.328912,0.022936,0.34350876,362,
0.697107,0.09394,-0.327448,0.024156,0.341511974,363,
0.703471,0.090524,-0.325496,0.020984,0.338500471,364,
0.712377,0.0915,-0.326228,0.020252,0.339421716,365,
0.718683,0.08906,-0.330132,0.017812,0.342397559,366,
0.726654,0.086864,-0.327448,0.02074,0.339407859,367,
0.736754,0.08418,-0.3294,0.019032,0.340518501,368,
0.743124,0.08052,-0.33306,0.020984,0.343296901,369,
0.750349,0.081008,-0.33428,0.025132,0.344872486,370,
0.758635,0.077104,-0.334768,0.025864,0.344504843,371,
0.765023,0.078812,-0.3355,0.02806,0.345772967,372,
0.772329,0.079056,-0.337452,0.028548,0.347762407,373,
0.778623,0.07686,-0.335256,0.030744,0.345324831,374,
0.786092,0.07564,-0.337208,0.02684,0.346628087,375,
0.792559,0.07686,-0.335256,0.030012,0.345260431,376,
0.7998,0.07442,-0.335256,0.027572,0.344521606,377,
0.80608,0.080032,-0.336232,0.025376,0.346555941,378,
0.813126,0.08052,-0.3355,0.02562,0.345977029,379,
0.820059,0.08296,-0.332816,0.027084,0.344067427,380,
0.826978,0.083692,-0.333548,0.027572,0.344991064,381,
0.834298,0.089548,-0.332816,0.028304,0.345812739,382,
0.840579,0.091256,-0.329888,0.030988,0.343677183,383,
0.848057,0.093452,-0.327936,0.027816,0.342124285,384,
0.854463,0.092964,-0.326716,0.028548,0.340882147,385,
0.861734,0.092964,-0.32696,0.02806,0.34107552,386,
0.868025,0.09394,-0.328424,0.029036,0.342826686,387,
0.875377,0.093696,-0.329156,0.026596,0.343263689,388,
0.882596,0.090036,-0.3294,0.027328,0.342575044,389,
0.888942,0.089548,-0.329644,0.028792,0.342801678,390,
0.896015,0.08784,-0.328424,0.028548,0.341164444,391,
0.903507,0.084424,-0.330864,0.028304,0.342636126,392,
0.90984,0.08174,-0.332084,0.029036,0.34322631,393,
0.916856,0.082228,-0.331108,0.03172,0.342636995,394,
0.923582,0.079788,-0.335256,0.03416,0.346308556,395,
0.93162,0.079056,-0.334524,0.032208,0.345244135,396,
0.938469,0.07808,-0.336964,0.034648,0.347622939,397,
0.94484,0.075396,-0.338672,0.036112,0.34883715,398,
0.951706,0.07808,-0.337452,0.036112,0.348244763,399,
0.958652,0.075396,-0.338672,0.037088,0.348939537,400,
0.966232,0.074176,-0.336232,0.03782,0.346387629,401,
0.972612,0.072712,-0.336476,0.037332,0.34626119,402,
0.979334,0.075396,-0.33794,0.036356,0.34815192,403,
0.986297,0.074176,-0.334524,0.037576,0.344703266,404,
0.99338,0.073932,-0.333792,0.037332,0.343913824,405,
0.001064,0.078812,-0.333548,0.03538,0.344553833,406,
0.007336,0.081252,-0.33306,0.035868,0.344698948,407,
0.014069,0.081496,-0.330376,0.03538,0.342113495,408,
0.020364,0.084912,-0.329644,0.033184,0.342018117,409,
0.027057,0.08662,-0.331108,0.034404,0.343975533,410,
0.0334,0.08906,-0.3294,0.034892,0.343006553,411,
0.040696,0.089304,-0.330376,0.037576,0.344289793,412,
0.047582,0.09272,-0.325496,0.03538,0.340288685,413,
0.055008,0.094184,-0.325984,0.035624,0.341182156,414,
0.061229,0.094428,-0.326472,0.03294,0.34144642,415,
0.069875,0.097112,-0.325252,0.031232,0.340873938,416,
0.076805,0.096136,-0.328424,0.031476,0.343649811,417,
0.083852,0.0976,-0.333548,0.032452,0.349046072,418,
0.090569,0.098088,-0.336232,0.031476,0.351658858,419,
0.096826,0.096624,-0.336476,0.031232,0.351465125,420,
0.103561,0.09638,-0.337696,0.03172,0.352610055,421,
0.109845,0.093452,-0.338916,0.032208,0.353036381,422,
0.116514,0.090524,-0.33794,0.03172,0.351289335,423,
0.122876,0.08906,-0.339648,0.03294,0.352671931,424,
0.129591,0.08662,-0.339892,0.030744,0.352100539,425,
0.135895,0.08418,-0.342576,0.031232,0.354146899,426,
0.142671,0.084668,-0.343552,0.033428,0.355406919,427,
0.148977,0.081984,-0.346968,0.034648,0.358201973,428,
0.155629,0.08174,-0.345016,0.034648,0.356255459,429,
0.162684,0.080276,-0.3477,0.036112,0.358669211,430,
0.169412,0.080032,-0.345748,0.034404,0.356553552,431,
0.176331,0.082472,-0.343064,0.032452,0.354327068,432,
0.184313,0.0854,-0.336476,0.029036,0.348356639,433,
0.190599,0.0854,-0.33672,0.026596,0.348397568,434,
0.197334,0.08662,-0.33306,0.025132,0.345055945,435,
0.205159,0.087596,-0.331596,0.02196,0.343673112,436,
0.211838,0.088572,-0.329888,0.024156,0.342424596,437,
0.219432,0.085644,-0.329644,0.017812,0.341053264,438,
0.225721,0.086864,-0.331596,0.019764,0.343353866,439,
0.23277,0.084424,-0.331596,0.019764,0.342744708,440,
0.240035,0.08296,-0.33184,0.018056,0.342529074,441,
0.246345,0.083692,-0.331108,0.017324,0.341960494,442,
0.253458,0.084424,-0.331352,0.019764,0.34250865,443,
0.260144,0.083936,-0.330864,0.019276,0.341888582,444,
0.267154,0.086132,-0.330132,0.019276,0.341727118,445,
0.273936,0.0854,-0.331352,0.018056,0.342656281,446,
0.280239,0.086864,-0.329644,0.01708,0.341324256,447,
0.286909,0.08662,-0.33062,0.016592,0.342181097,448,
0.293233,0.088328,-0.32818,0.016836,0.340275475,449,
0.299932,0.091012,-0.33062,0.01586,0.343284588,450,
0.306224,0.089792,-0.331108,0.016104,0.343444973,451,
0.313004,0.09516,-0.328912,0.01464,0.342713961,452,
0.319365,0.096624,-0.327692,0.013908,0.341923495,453,
0.326524,0.097112,-0.32696,0.01098,0.34125378,454,
0.332902,0.099064,-0.323788,0.009516,0.338737213,455,
0.339603,0.101016,-0.325984,0.010492,0.341437963,456,
0.345887,0.10248,-0.326228,0.014884,0.342269473,457,
0.353252,0.104676,-0.326472,0.013176,0.34309567,458,
0.359554,0.104188,-0.326716,0.011712,0.343126296,459,
0.366247,0.104676,-0.321836,0.0122,0.338650728,460,
0.37264,0.107116,-0.3233,0.011712,0.34078424,461,
0.379362,0.106384,-0.319884,0.011224,0.337297061,462,
0.385639,0.10736,-0.321104,0.010492,0.338738882,463,
0.39236,0.10736,-0.321592,0.010248,0.339194053,464,
0.399335,0.105652,-0.320372,0.008784,0.337457734,465,
0.405606,0.10736,-0.32086,0.010736,0.338515245,466,
0.412401,0.106628,-0.323056,0.010004,0.340345104,467,
0.419511,0.106872,-0.324276,0.01098,0.341609586,468,
0.4258,0.107848,-0.32574,0.011956,0.343337567,469,
0.43257,0.105652,-0.325496,0.010492,0.342374171,470,
0.438886,0.10614,-0.324764,0.014396,0.341971636,471,
0.445578,0.10492,-0.326228,0.0122,0.34290196,472,
0.451327,0.108092,-0.326472,0.010248,0.344053584,473,
0.456962,0.10736,-0.326472,0.010736,0.343839204,474,
0.46282,0.105896,-0.32452,0.009516,0.341493408,475,
0.46853,0.108092,-0.325252,0.008296,0.342843357,476,
0.474257,0.106872,-0.323056,0.00854,0.340381749,477,
0.480449,0.108336,-0.32452,0.010248,0.342279039,478,
0.487984,0.110044,-0.318908,0.010248,0.337515949,479,
0.494809,0.109556,-0.319152,0.006588,0.337496545,480,
0.501051,0.111996,-0.315248,0.009516,0.33468636,481,
0.507767,0.110776,-0.316712,0.008296,0.335628719,482,
0.515222,0.110776,-0.31476,0.0061,0.333740003,483,
0.521901,0.112728,-0.310612,0.007564,0.330521755,484,
0.528199,0.113216,-0.312564,0.00732,0.332517216,485,
0.534987,0.114192,-0.310612,0.003416,0.330955128,486,
0.541227,0.113216,-0.311588,0.004148,0.331545095,487,
0.547891,0.111752,-0.311588,0.003416,0.331039666,488,
0.55431,0.111264,-0.311344,0.001952,0.330633595,489,
0.561016,0.111752,-0.308172,0.002196,0.327815975,490,
0.567678,0.111264,-0.311588,0.00122,0.330859861,491,
0.574661,0.111264,-0.312076,0.002928,0.331330169,492,
0.583133,0.111752,-0.314028,0.002684,0.333330614,493,
0.589889,0.114924,-0.315736,0.001952,0.336006782,494,
0.596791,0.112484,-0.312076,0.001952,0.331734669,495,
0.604494,0.1159,-0.311832,0.002928,0.332686909,496,
0.611491,0.117852,-0.3111,0.001464,0.332677693,497,
0.618695,0.114924,-0.308904,0.00122,0.32959171,498,
0.625062,0.116388,-0.307196,-0.06222,0.334345446,499,
0.632137,0.116144,-0.309392,0,0.330473658,500,
0.63968,0.115412,-0.306708,-0.00244,0.327712802,501,
0.646005,0.116388,-0.306952,-0.002928,0.328289918,502,
0.654261,0.1159,-0.30744,-0.0061,0.328617367,503,
0.662721,0.117364,-0.308904,-0.005368,0.330491763,504,
0.669871,0.114192,-0.310856,-0.005612,0.33121407,505,
0.676592,0.11346,-0.311344,-0.001708,0.331377693,506,
0.683003,0.112484,-0.309392,-0.001708,0.329209625,507,
0.68999,0.112972,-0.313052,-0.002928,0.332825481,508,
0.696299,0.110532,-0.313052,-0.006344,0.332052893,509,
0.703092,0.111996,-0.31232,-0.003904,0.331816407,510,
0.709404,0.109556,-0.31476,-0.004636,0.333313467,511,
0.716472,0.109312,-0.313296,-0.004636,0.331850854,512,
0.722855,0.108336,-0.314272,-0.006344,0.332481316,513,
0.729563,0.109312,-0.312076,-0.005612,0.330714435,514,
0.735885,0.1098,-0.314028,-0.00854,0.332780042,515,
0.742855,0.111508,-0.316468,-0.008296,0.335640958,516,
0.749186,0.107604,-0.318664,-0.00854,0.336449546,517,
0.756106,0.11102,-0.320372,-0.006588,0.339126909,518,
0.762866,0.111752,-0.317932,-0.007564,0.337085271,519,
0.769195,0.114192,-0.319152,-0.00854,0.33907336,520,
0.775912,0.116388,-0.322812,-0.007076,0.343225616,521,
0.782313,0.116876,-0.320616,-0.010248,0.341408319,522,
0.78943,0.119316,-0.323056,-0.010248,0.344538109,523,
0.795717,0.121512,-0.324764,-0.009028,0.346869322,524,
0.802512,0.121512,-0.325496,-0.011224,0.347618743,525,
0.808873,0.122732,-0.325984,-0.012444,0.348544926,526,
0.815585,0.122488,-0.329156,-0.011224,0.351387195,527,
0.821889,0.122,-0.329156,-0.010004,0.351180512,528,
0.829248,0.120292,-0.329156,-0.009028,0.35056432,529,
0.835548,0.121512,-0.328912,-0.008052,0.350732241,530,
0.8423,0.121512,-0.327936,-0.00732,0.349801042,531,
0.848593,0.121024,-0.321836,-0.008296,0.343939011,532,
0.855361,0.121268,-0.324764,-0.008296,0.346765637,533,
0.861605,0.122244,-0.328912,-0.008296,0.350992198,534,
0.868309,0.120048,-0.326716,-0.010248,0.348223906,535,
0.8747,0.121268,-0.325252,-0.011224,0.347305009,536,
0.881393,0.122488,-0.325008,-0.0122,0.347537552,537,
0.88708,0.121756,-0.322324,-0.0122,0.344769669,538,
0.893001,0.119804,-0.325496,-0.013176,0.347094009,539,
0.898818,0.120292,-0.326472,-0.015372,0.348267757,540,
0.904471,0.117608,-0.326716,-0.016104,0.34761232,541,
0.910159,0.11712,-0.324764,-0.010492,0.34539663,542,
0.915892,0.113948,-0.32452,-0.011956,0.344151599,543,
0.921618,0.111752,-0.325496,-0.00854,0.344251488,544,
0.927368,0.111264,-0.321592,-0.007808,0.34038516,545,
0.933184,0.108336,-0.321348,-0.007808,0.339208182,546,
0.940625,0.10614,-0.323544,-0.007808,0.340598568,547,
0.946915,0.104188,-0.320616,-0.010492,0.337283028,548,
0.953692,0.102236,-0.320372,-0.007808,0.336379819,549,
0.959993,0.10004,-0.320616,-0.009028,0.33598233,550,
0.966719,0.100284,-0.321592,-0.005856,0.336916292,551,
0.973089,0.100528,-0.31964,-0.00854,0.335184337,552,
0.979868,0.104432,-0.319396,-0.006588,0.336100058,553,
0.985934,0.10858,-0.317688,-0.005856,0.335782034,554,
0.991632,0.111752,-0.317688,-0.0061,0.336825452,555,
0.998669,0.115412,-0.316712,-0.00488,0.337120505,556,
0.006498,0.118828,-0.318664,-0.005612,0.340144577,557,
0.012865,0.11956,-0.318664,-0.005856,0.340405099,558,
0.020482,0.121756,-0.316224,-0.010004,0.339001802,559,
0.033456,0.122732,-0.316468,-0.004392,0.339461969,560,
0.039818,0.115656,-0.316956,-0.00488,0.337433298,561,
0.046433,0.114192,-0.316468,-0.004148,0.336465472,562,
0.052909,0.112484,-0.319396,-0.00122,0.338626555,563,
0.061133,0.110044,-0.318908,-0.000488,0.337360686,564,
0.068487,0.10736,-0.316468,-0.000732,0.334183633,565,
0.074883,0.108092,-0.321348,-0.000732,0.339041227,566,
0.082036,0.106384,-0.32208,0.000488,0.339195106,567,
0.088325,0.105896,-0.321104,0.000976,0.338116392,568,
0.095138,0.10614,-0.317932,0.000732,0.335182028,569,
0.101498,0.105164,-0.321104,0.000244,0.337886527,570,
0.108432,0.10858,-0.324032,0.000976,0.341741578,571,
0.115223,0.1098,-0.32208,-0.000732,0.340282386,572,
0.1215,0.109556,-0.323544,-0.000488,0.34158963,573,
0.12887,0.11224,-0.318908,0.06222,0.343760758,574,
0.135172,0.114192,-0.321104,0,0.34080433,575,
0.141871,0.11468,-0.321592,-0.000244,0.341427849,576,
0.148168,0.1159,-0.321104,-0.000732,0.341381201,577,
0.155,0.116876,-0.31964,-0.000488,0.340338019,578,
0.161242,0.115656,-0.319396,-0.000244,0.339691293,579,
0.167964,0.111996,-0.321104,-0.00122,0.340077008,580,
0.17437,0.110532,-0.323544,-0.001464,0.341906692,581,
0.181084,0.110532,-0.319152,0.000488,0.337750737,582,
0.187384,0.111264,-0.321836,0.000976,0.340527592,583,
0.194207,0.10858,-0.321104,0.000976,0.338966588,584,
0.200484,0.108824,-0.322812,0.000732,0.340662276,585,
0.207564,0.10858,-0.322324,0.000976,0.340122522,586,
0.213968,0.109312,-0.3233,0.000732,0.341280734,587,
0.220646,0.108336,-0.322568,-0.000244,0.340274688,588,
0.22698,0.107848,-0.323056,-0.000244,0.340582486,589,
0.233746,0.107116,-0.321836,-0.000488,0.339193877,590,
0.241173,0.110776,-0.321348,-0.000976,0.339907064,591,
0.24838,0.110532,-0.322568,0.000732,0.340980899,592,
0.255164,0.111264,-0.322324,0.000976,0.340988843,593,
0.261413,0.11224,-0.322812,0.000732,0.341768841,594,
0.268672,0.11102,-0.32208,0.000244,0.340677305,595,
0.277233,0.110288,-0.321348,0.00122,0.339749126,596,
0.284228,0.11346,-0.322568,0.000976,0.341941865,597,
0.292065,0.111752,-0.323056,0.000488,0.341839036,598,
0.29944,0.112484,-0.324276,0.000732,0.343231861,599,
0.306122,0.111996,-0.322812,-0.000976,0.341689397,600,
0.312497,0.113704,-0.3233,0.000976,0.342713353,601,
0.319724,0.112728,-0.317932,0.000732,0.337326095,602,
0.326027,0.113216,-0.320616,0.001952,0.340023959,603,
0.332951,0.111264,-0.320616,0.000244,0.339373477,604,
0.341,0.111752,-0.320128,0.000976,0.339074326,605,
0.34731,0.110288,-0.317444,0.001952,0.336062414,606,
0.354398,0.110532,-0.318908,0.001708,0.337524151,607,
0.361081,0.10858,-0.319884,0.00122,0.337811898,608,
0.36911,0.107604,-0.319152,0.001464,0.336806715,609,
0.375866,0.109312,-0.321836,0.003172,0.339908202,610,
0.382887,0.1098,-0.320616,0.003904,0.338918723,611,
0.389198,0.11224,-0.319884,0.00488,0.339038944,612,
0.397055,0.113704,-0.322568,0.00366,0.342041094,613,
0.404026,0.115412,-0.320372,0.007076,0.340599791,614,
0.410699,0.116632,-0.319396,0.002684,0.340035339,615,
0.416995,0.11834,-0.316712,0.004392,0.338127396,616,
0.424569,0.117364,-0.318664,0.003416,0.339606717,617,
0.430895,0.118828,-0.320372,0.004148,0.34172433,618,
0.437881,0.120292,-0.32208,0.001708,0.343814789,619,
0.44499,0.121024,-0.321104,0.00244,0.343162558,620,
0.452014,0.122488,-0.32086,0.001708,0.34344922,621,
0.458811,0.121024,-0.319884,0.00366,0.34203213,622,
0.465102,0.119804,-0.318908,0.005612,0.340715138,623,
0.471695,0.121756,-0.31842,0.005856,0.340954708,624,
0.4788,0.123464,-0.31598,0.006344,0.339303649,625,
0.485519,0.121024,-0.314516,0.006588,0.337061604,626,
0.491815,0.122732,-0.31354,0.006588,0.336769769,627,
0.498526,0.121268,-0.313784,0.0061,0.336457332,628,
0.504921,0.118096,-0.316224,0.003904,0.337578916,629,
0.51159,0.118828,-0.31842,0.007564,0.339953826,630,
0.517887,0.116632,-0.313784,0.00732,0.334838774,631,
0.524689,0.1159,-0.313784,0.007076,0.334579256,632,
0.53096,0.116632,-0.315736,0.007076,0.336663504,633,
0.537662,0.116876,-0.313784,0.006344,0.334903933,634,
0.544152,0.117852,-0.315736,0.006832,0.337083064,635,
0.551397,0.118096,-0.315248,0.00976,0.336783646,636,
0.557677,0.116876,-0.317688,0.008296,0.338606687,637,
0.564501,0.119072,-0.317444,0.009272,0.339167811,638,
0.57083,0.118584,-0.317932,0.010004,0.339474597,639,
0.577583,0.12078,-0.317444,0.00976,0.339784872,640,
0.58397,0.119804,-0.320128,0.00976,0.34195057,641,
0.590626,0.122976,-0.32086,0.010492,0.343779462,642,
0.597719,0.122244,-0.318908,0.010248,0.341688351,643,
0.606747,0.122244,-0.3172,0.009516,0.340073506,644,
0.614464,0.123708,-0.3172,0.011956,0.340679402,645,
0.62081,0.124196,-0.318176,0.010736,0.341724853,646,
0.628393,0.12444,-0.315248,0.010004,0.33906739,647,
0.634794,0.125904,-0.317444,0.00976,0.341639822,648,
0.641438,0.121268,-0.315004,0.00854,0.337648307,649,
0.647733,0.122,-0.318908,0.00976,0.341586841,650,
0.654539,0.123952,-0.319396,0.009516,0.342736717,651,
0.660869,0.122,-0.317688,0.01464,0.340622951,652,
0.667578,0.123708,-0.31964,0.0122,0.342960987,653,
0.673986,0.12444,-0.3172,0.015616,0.341093848,654,
0.680658,0.122488,-0.317932,0.013664,0.340985002,655,
0.687352,0.124684,-0.3172,0.01464,0.341139663,656,
0.693732,0.123708,-0.31964,0.017812,0.343206448,657,
0.701037,0.128588,-0.319884,0.016836,0.345172563,658,
0.707344,0.1281,-0.320128,0.019276,0.345344915,659,
0.714188,0.128344,-0.32086,0.020008,0.346155517,660,
0.720509,0.129808,-0.320616,0.019032,0.346420198,661,
0.727216,0.13054,-0.318176,0.018788,0.344426549,662,
0.73372,0.130784,-0.31598,0.019032,0.342505521,663,
0.740694,0.132492,-0.316956,0.01708,0.343957792,664,
0.747393,0.131272,-0.313296,0.01708,0.340115345,665,
0.753794,0.13054,-0.314028,0.016104,0.340460886,666,
0.760511,0.127856,-0.311832,0.017812,0.337496104,667,
0.767412,0.128588,-0.312564,0.018544,0.338489302,668,
0.775646,0.128344,-0.312076,0.018056,0.337919563,669,
0.781964,0.12566,-0.310612,0.02074,0.335708799,670,
0.788691,0.124928,-0.310368,0.021228,0.335240106,671,
0.795789,0.121512,-0.309392,0.022936,0.333188589,672,
0.803201,0.123708,-0.312076,0.025132,0.336640337,673,
0.809694,0.12322,-0.311588,0.026352,0.336102184,674,
0.818178,0.121756,-0.312564,0.026352,0.336474673,675,
0.824993,0.124684,-0.314516,0.029768,0.339635905,676,
0.831221,0.12566,-0.310856,0.029768,0.33661257,677,
0.8379,0.125416,-0.311832,0.0305,0.337488695,678,
0.844876,0.129076,-0.31232,0.02684,0.339005578,679,
0.851134,0.126636,-0.311832,0.029768,0.337878686,680,
0.859208,0.127856,-0.310368,0.028304,0.336862833,681,
0.866229,0.129808,-0.310368,0.02806,0.337588175,682,
0.87328,0.132004,-0.311344,0.033428,0.339819913,683,
0.880318,0.131272,-0.312808,0.035136,0.341050907,684,
0.887758,0.130052,-0.311344,0.035136,0.339239071,685,
0.894422,0.13298,-0.251076,0.036844,0.286496629,686,
0.901101,0.133468,-0.312564,0.038552,0.342047099,687,
0.907407,0.134688,-0.372588,0.038552,0.398056443,688,
0.914196,0.137616,-0.315248,0.039284,0.346211926,689,
0.921665,0.138592,-0.315492,0.037088,0.346581108,690,
0.928368,0.138836,-0.314028,0.03904,0.345562066,691,
0.934772,0.139324,-0.313296,0.038552,0.345038863,692,
0.941432,0.13908,-0.31476,0.040016,0.346436696,693,
0.949534,0.141032,-0.313784,0.038552,0.34617435,694,
0.955828,0.1403,-0.314028,0.03782,0.34601738,695,
0.962929,0.140056,-0.31232,0.03782,0.344368724,696,
0.96995,0.142008,-0.308904,0.037576,0.342052495,697,
0.977056,0.1403,-0.312076,0.04148,0.344668116,698,
0.984353,0.140544,-0.309392,0.038552,0.341997489,699,
0.990634,0.141764,-0.308904,0.042944,0.342582691,700,
0.997588,0.14152,-0.308904,0.042212,0.342390778,701,
0.005054,0.139568,-0.308416,0.045384,0.341554334,702,
0.012031,0.140056,-0.307196,0.04636,0.340784852,703,
0.01833,0.140788,-0.305488,0.045872,0.339482576,704,
0.025781,0.13908,-0.306708,0.0427,0.339464775,705,
0.03277,0.138104,-0.30866,0.04514,0.34114708,706,
0.039346,0.13786,-0.30988,0.046848,0.342382431,707,
0.045912,0.136396,-0.307196,0.044652,0.339067917,708,
0.05288,0.135176,-0.308172,0.044896,0.339496956,709,
0.059587,0.132492,-0.309148,0.04392,0.339198441,710,
0.066393,0.132492,-0.309636,0.04392,0.339643267,711,
0.072795,0.13176,-0.3111,0.044896,0.340821887,712,
0.079497,0.136152,-0.30988,0.046604,0.341664915,713,
0.086953,0.136152,-0.309392,0.046116,0.341156067,714,
0.093718,0.137128,-0.310368,0.045872,0.342398341,715,
0.100012,0.141032,-0.309636,0.045872,0.343320139,716,
0.106737,0.13908,-0.309392,0.04636,0.342368085,717,
0.113874,0.141276,-0.307196,0.047336,0.341422008,718,
0.120568,0.143716,-0.305732,0.047092,0.341092364,719,
0.126884,0.145668,-0.307196,0.046116,0.343096538,720,
0.133707,0.142984,-0.305732,0.044652,0.34045599,721,
0.140016,0.143472,-0.308172,0.044896,0.342884597,722,
0.146739,0.139812,-0.310124,0.04514,0.343164553,723,
0.15312,0.13664,-0.310612,0.045628,0.342391908,724,
0.159874,0.1342,-0.30866,0.045872,0.339683494,725,
0.166166,0.13298,-0.311588,0.044896,0.341740271,726,
0.173274,0.132736,-0.313296,0.048312,0.343667395,727,
0.179972,0.130784,-0.316468,0.047824,0.345750755,728,
0.186263,0.129564,-0.31476,0.04636,0.343525745,729,
0.193073,0.132248,-0.316956,0.046848,0.346619928,730,
0.199402,0.133712,-0.317932,0.048068,0.348238694,731,
0.205714,0.1342,-0.318664,0.048068,0.349094425,732,
0.211897,0.133468,-0.3172,0.04758,0.347409562,733,
0.217565,0.132736,-0.3172,0.046604,0.346996568,734,
0.225466,0.133224,-0.318908,0.044652,0.348489236,735,
0.233817,0.134932,-0.321592,0.042944,0.351386178,736,
0.240837,0.135908,-0.321592,0.042456,0.351702873,737,
0.247768,0.137616,-0.319152,0.041724,0.350052931,738,
0.25559,0.137372,-0.319396,0.039772,0.349952401,739,
0.263711,0.13786,-0.315492,0.041236,0.346757825,740,
0.270008,0.138104,-0.315736,0.039528,0.346878076,741,
0.277852,0.135176,-0.250344,0.04026,0.287342195,742,
0.28425,0.13786,-0.30866,0.037332,0.340103004,743,
0.290884,0.137372,-0.309392,0.037576,0.340597169,744,
0.297118,0.13298,-0.308904,0.036844,0.338323576,745,
0.303953,0.131516,-0.306952,0.036356,0.335913303,746,
0.31071,0.131028,-0.306708,0.035624,0.335420935,747,
0.317018,0.128588,-0.305488,0.033672,0.333154012,748,
0.323787,0.125904,-0.305244,0.032696,0.331805282,749,
0.330096,0.124928,-0.306708,0.032452,0.332761078,750,
0.337141,0.122976,-0.309148,0.032452,0.334288371,751,
0.34408,0.122732,-0.308172,0.03172,0.333225575,752,
0.351011,0.12078,-0.30988,0.030988,0.334026464,753,
0.358639,0.12078,-0.373076,0.03172,0.393420473,754,
0.365281,0.122976,-0.315004,0.029524,0.33944408,755,
0.371528,0.126148,-0.315492,0.028304,0.340954009,756,
0.378602,0.127856,-0.316956,0.028548,0.342962463,757,
0.384987,0.129808,-0.3172,0.029036,0.343960821,758,
0.393391,0.133468,-0.31598,0.027572,0.344118123,759,
0.399715,0.13786,-0.316956,0.02806,0.346776368,760,
0.406841,0.138592,-0.318176,0.026596,0.348067604,761,
0.413195,0.142008,-0.319884,0.026352,0.350979306,762,
0.420337,0.14274,-0.321836,0.025132,0.35296563,763,
0.426643,0.142252,-0.322568,0.02318,0.353303069,764,
0.434566,0.143716,-0.32574,0.022936,0.356772892,765,
0.440851,0.1403,-0.328912,0.021716,0.358244021,766,
0.447795,0.139568,-0.330864,0.022204,0.359782199,767,
0.454934,0.1403,-0.325496,0.02074,0.355051945,768,
0.461849,0.138348,-0.325496,0.019764,0.354229348,769,
0.468899,0.132248,-0.326472,0.022448,0.352955256,770,
0.476424,0.13298,-0.32696,0.019276,0.353494111,771,
0.48281,0.131272,-0.325252,0.019764,0.351300181,772,
0.489526,0.13298,-0.324032,0.021716,0.350930195,773,
0.496869,0.1281,-0.326228,0.018788,0.350980494,774,
0.503233,0.1281,-0.328424,0.018788,0.353022553,775,
0.510605,0.12688,-0.325496,0.011712,0.349547352,776,
0.517449,0.123952,-0.321348,0.013908,0.34470577,777,
0.524369,0.12566,-0.316468,0.012444,0.340730515,778,
0.535572,0.12566,-0.309392,0.00976,0.334079486,779,
0.542624,0.128344,-0.307684,0.008052,0.333476327,780,
0.549931,0.126392,-0.306952,0.009028,0.332078263,781,
0.556224,0.128344,-0.306708,0.005856,0.332530107,782,
0.563801,0.12932,-0.303048,0.00488,0.329523242,783,
0.570499,0.128588,-0.302072,0.005368,0.328346132,784,
0.576794,0.130784,-0.30256,0.004148,0.329642555,785,
0.583849,0.129564,-0.302316,0.003904,0.328933177,786,
0.590703,0.127612,-0.304512,0.0061,0.330226575,787,
0.598139,0.128832,-0.30378,0.004636,0.33000222,788,
0.60454,0.131272,-0.30622,0.00488,0.333206904,789,
0.611192,0.129564,-0.304268,0.004636,0.330737567,790,
0.617468,0.133468,-0.305732,0.004148,0.333620996,791,
0.624662,0.133468,-0.305,0.00366,0.332944594,792,
0.63229,0.136396,-0.30256,0.005856,0.331934806,793,
0.63903,0.13786,-0.302072,0.003904,0.33206643,794,
0.645255,0.138836,-0.300608,0.00366,0.331140454,795,
0.65411,0.14396,-0.301584,0.003904,0.334204476,796,
0.660401,0.140544,-0.304756,0.002684,0.335612931,797,
0.668055,0.144448,-0.307196,0.002684,0.339472843,798,
0.674496,0.143716,-0.310124,0.004392,0.341833986,799,
0.681402,0.145424,-0.312808,0.004392,0.344987354,800,
0.688073,0.145912,-0.318176,0.005368,0.350078697,801,
0.696105,0.146156,-0.318176,0.00732,0.350215827,802,
0.702761,0.146156,-0.321104,0.007564,0.352883223,803,
0.709066,0.14884,-0.32086,0.009272,0.353822632,804,
0.715762,0.147864,-0.322324,0.007564,0.354702322,805,
0.723348,0.146888,-0.32086,0.0061,0.35293687,806,
0.730069,0.145912,-0.32086,0.003172,0.352493281,807,
0.73684,0.148596,-0.318664,0.001464,0.351610096,808,
0.743203,0.148596,-0.31842,0.00122,0.351388042,809,
0.749912,0.147864,-0.316468,0.00122,0.349309671,810,
0.75622,0.14762,-0.310612,0.001464,0.343909323,811,
0.763049,0.148108,-0.309148,0.000976,0.342796468,812,
0.769351,0.145668,-0.305488,0.000976,0.338442073,813,
0.776051,0.147132,-0.30622,0.000732,0.339733792,814,
0.782442,0.1464,-0.304024,-0.06222,0.343125168,815,
0.789149,0.14762,-0.302072,-0.002196,0.336220136,816,
0.795454,0.146156,-0.302804,-0.00366,0.336251743,817,
0.802249,0.146644,-0.303536,-0.0061,0.337158384,818,
0.808562,0.14762,-0.301828,-0.005124,0.336032828,819,
0.81538,0.147132,-0.302804,-0.00854,0.336765526,820,
0.821638,0.145668,-0.301828,-0.00976,0.335282814,821,
0.828469,0.144692,-0.300608,-0.009028,0.333740092,822,
0.834892,0.144204,-0.300852,-0.011224,0.333815365,823,
0.841888,0.142984,-0.30134,-0.010492,0.33370691,824,
0.848592,0.142984,-0.300364,-0.013664,0.332940928,825,
0.854979,0.139812,-0.295728,-0.012688,0.32735826,826,
0.861228,0.138592,-0.294264,-0.015372,0.325630684,827,
0.868421,0.135908,-0.296704,-0.015616,0.326723289,828,
0.876334,0.133956,-0.296704,-0.0183,0.326055768,829,
0.883556,0.132736,-0.295728,-0.018544,0.324681037,830,
0.890316,0.129076,-0.296704,-0.0183,0.324081421,831,
0.897276,0.127368,-0.302804,-0.018056,0.328996792,832,
0.903658,0.126148,-0.29768,-0.022204,0.324067459,833,
0.910614,0.125172,-0.302072,-0.02074,0.327636491,834,
0.917367,0.122732,-0.297924,-0.022204,0.322978128,835,
0.924715,0.123708,-0.297436,-0.023424,0.322986884,836,
0.932162,0.122732,-0.305244,-0.02684,0.330087002,837,
0.940685,0.120536,-0.301828,-0.032208,0.326598261,838,
0.947488,0.129564,-0.30012,-0.040992,0.329452862,839,
0.953888,0.143716,-0.302316,-0.049288,0.338346804,840,
0.961487,0.150548,-0.303048,-0.05002,0.342059631,841,
0.967781,0.155428,-0.309636,-0.05124,0.350225432,842,
0.975237,0.160064,-0.312564,-0.048312,0.354472548,843,
0.981872,0.160552,-0.309148,-0.050508,0.351995012,844,
0.988159,0.161284,-0.306708,-0.058072,0.351361186,845,
0.995234,0.162016,-0.293776,-0.060756,0.340946937,846,
0.001987,0.155916,-0.296948,-0.065392,0.341707517,847,
0.008279,0.150304,-0.304024,-0.071736,0.346652475,848,
0.015356,0.147864,-0.302804,-0.0732,0.344836577,849,
0.022581,0.143716,-0.30256,-0.071004,0.34240095,850,
0.029596,0.143228,-0.295484,-0.068808,0.335499024,851,
0.037186,0.1403,-0.29524,-0.068564,0.333993667,852,
0.044568,0.137616,-0.29402,-0.07076,0.332254272,853,
0.051129,0.139324,-0.29158,-0.071004,0.33086499,854,
0.058003,0.1403,-0.289384,-0.07076,0.329293436,855,
0.06497,0.14274,-0.289872,-0.06588,0.329758485,856,
0.071225,0.139812,-0.291092,-0.064416,0.329289187,857,
0.078912,0.140788,-0.291336,-0.061,0.329270293,858,
0.085242,0.1403,-0.290604,-0.057584,0.327796723,859,
0.092345,0.138592,-0.287188,-0.055388,0.32365494,860,
0.099483,0.138348,-0.291336,-0.050996,0.32652324,861,
0.106488,0.142984,-0.295484,-0.053192,0.33254264,862,
0.113506,0.148108,-0.295484,-0.050752,0.334398773,863,
0.119872,0.153476,-0.295728,-0.047824,0.336596298,864,
0.127252,0.159332,-0.29524,-0.047336,0.338812693,865,
0.133969,0.16226,-0.29524,-0.047336,0.340199445,866,
0.141003,0.166164,-0.297436,-0.048068,0.34407729,867,
0.147745,0.16714,-0.298412,-0.048556,0.345460832,868,
0.15474,0.164944,-0.296704,-0.045384,0.342490137,869,
0.161003,0.165676,-0.304268,-0.044652,0.349315551,870,
0.168837,0.160796,-0.30256,-0.041724,0.345164887,871,
0.175148,0.156648,-0.303536,-0.038552,0.343742572,872,
0.18268,0.15372,-0.304756,-0.035136,0.343133497,873,
0.189655,0.15006,-0.30256,-0.033916,0.339427241,874,
0.195947,0.144448,-0.302072,-0.03294,0.33644875,875,
0.20303,0.143228,-0.300608,-0.030988,0.33442441,876,
0.21067,0.143472,-0.300608,-0.03172,0.334597583,877,
0.217601,0.142008,-0.300364,-0.030256,0.333616891,878,
0.224358,0.138836,-0.304512,-0.030012,0.336011478,879,
0.231283,0.141032,-0.301828,-0.027084,0.334250968,880,
0.237968,0.138104,-0.302804,-0.026108,0.333833199,881,
0.244405,0.13664,-0.304024,-0.02928,0.334601854,882,
0.251981,0.13908,-0.30256,-0.025376,0.333960688,883,
0.258286,0.138592,-0.302316,-0.025132,0.333518101,884,
0.267678,0.135908,-0.30134,-0.024156,0.331451795,885,
0.274098,0.138836,-0.299632,-0.024644,0.331152679,886,
0.28095,0.138348,-0.299876,-0.023668,0.33109811,887,
0.287936,0.139568,-0.303292,-0.024156,0.334736876,888,
0.294935,0.135908,-0.304268,-0.025132,0.334187998,889,
0.301211,0.135176,-0.302072,-0.022448,0.331698593,890,
0.308187,0.135664,-0.304268,-0.021716,0.333849249,891,
0.314862,0.1342,-0.305,-0.020984,0.333878673,892,
0.322444,0.134688,-0.304512,-0.017812,0.333445172,893,
0.329428,0.136396,-0.303292,-0.017324,0.333001542,894,
0.335734,0.139812,-0.306952,-0.017324,0.337738133,895,
0.342493,0.140056,-0.306952,-0.015128,0.337733726,896,
0.348867,0.140544,-0.30988,-0.017812,0.340727894,897,
0.35558,0.143716,-0.305488,-0.017812,0.338074658,898,
0.361864,0.139568,-0.304268,-0.017812,0.335224566,899,
0.368575,0.141276,-0.306708,-0.018056,0.338163754,900,
0.374972,0.142496,-0.307928,-0.016836,0.339717845,901,
0.381645,0.144692,-0.30622,-0.018788,0.339204145,902,
0.389625,0.141276,-0.305488,-0.015128,0.336913465,903,
0.397499,0.140056,-0.304024,-0.014396,0.335042565,904,
0.40413,0.13664,-0.305488,-0.011468,0.334850598,905,
0.410471,0.134932,-0.301096,-0.011956,0.330164189,906,
0.418877,0.131516,-0.299632,-0.00976,0.3273699,907,
0.425185,0.13054,-0.297924,-0.011468,0.3254703,908,
0.432637,0.13176,-0.297924,-0.013664,0.326046181,909,
0.439594,0.132248,-0.296704,-0.012688,0.325090422,910,
0.44654,0.1403,-0.294264,-0.01586,0.326384637,911,
0.452946,0.140544,-0.293532,-0.013176,0.32571039,912,
0.460629,0.1464,-0.29158,-0.015372,0.326631528,913,
0.467552,0.150304,-0.292068,-0.01464,0.328799846,914,
0.473965,0.149572,-0.292312,-0.017324,0.328813335,915,
0.480631,0.152256,-0.2928,-0.014884,0.330356267,916,
0.488104,0.152988,-0.29036,-0.01464,0.328524866,917,
0.495191,0.152988,-0.293288,-0.019276,0.331352898,918,
0.501887,0.155428,-0.296948,-0.018788,0.335691774,919,
0.508171,0.155916,-0.299876,-0.019764,0.338564662,920,
0.514972,0.15616,-0.302804,-0.019764,0.34127236,921,
0.521238,0.15738,-0.301828,-0.021472,0.341071331,922,
0.527955,0.160796,-0.306708,-0.02196,0.346997684,923,
0.534359,0.16348,-0.307196,-0.024644,0.348858739,924,
0.54103,0.166896,-0.311344,-0.028304,0.354387468,925,
0.548583,0.168116,-0.313296,-0.030256,0.356837216,926,
0.55525,0.170556,-0.316468,-0.033184,0.361029808,927,
0.561522,0.172508,-0.315736,-0.033184,0.361316218,928,
0.568239,0.17446,-0.320128,-0.036844,0.3664365,929,
0.57466,0.172508,-0.319152,-0.04026,0.365017639,930,
0.581353,0.176656,-0.313052,-0.044164,0.362159296,931,
0.589829,0.170312,-0.31598,-0.048068,0.362160283,932,
0.596837,0.164212,-0.314272,-0.047824,0.357798275,933,
0.603803,0.157136,-0.312808,-0.046604,0.35314657,934,
0.611979,0.1464,-0.308172,-0.04392,0.343994052,935,
0.619882,0.135664,-0.36844,-0.038796,0.394535023,936,
0.626184,0.128344,-0.307684,-0.034404,0.33514961,937,
0.632974,0.124928,-0.297436,-0.027328,0.323762257,938,
0.639266,0.117364,-0.303536,-0.023668,0.326295244,939,
0.645995,0.109068,-0.304512,-0.020984,0.324135334,940,
0.652376,0.102236,-0.301828,-0.019764,0.319285072,941,
0.659095,0.10126,-0.304024,-0.014152,0.320756074,942,
0.665404,0.097844,-0.302072,-0.0122,0.317757426,943,
0.672299,0.097356,-0.30378,-0.004636,0.319032869,944,
0.678591,0.098088,-0.305488,-0.001952,0.320855083,945,
0.685316,0.101504,-0.300364,0.000244,0.317051501,946,
0.691582,0.10126,-0.30134,-0.006832,0.31797179,947,
0.698307,0.104432,-0.309392,-0.002684,0.326552685,948,
0.705373,0.100772,-0.308416,-0.001708,0.324466242,949,
0.712178,0.106628,-0.310368,0.000976,0.32817492,950,
0.718483,0.111752,-0.308416,0.001952,0.328043822,951,
0.725325,0.11224,-0.309636,0.003172,0.329366561,952,
0.731583,0.107848,-0.3111,0.003416,0.329281142,953,
0.738598,0.108824,-0.307684,0.008784,0.326480115,954,
0.744999,0.112728,-0.311588,0.013908,0.331644563,955,
0.751675,0.11712,-0.313052,0.013176,0.334502999,956,
0.757963,0.11468,-0.315004,0.01342,0.335498314,957,
0.764799,0.116144,-0.32452,0.011468,0.344868343,958,
0.771058,0.112972,-0.321348,0.011224,0.340812541,959,
0.777801,0.111996,-0.32208,0.015372,0.341342832,960,
0.784209,0.114192,-0.326228,0.014884,0.345956723,961,
0.790866,0.110776,-0.32696,0.01342,0.345476859,962,
0.79716,0.110532,-0.329644,0.015616,0.348032109,963,
0.803347,0.110288,-0.332328,0.020252,0.350735636,964,
0.81008,0.112728,-0.333304,0.02318,0.35261377,965,
0.815736,0.114192,-0.328424,0.0183,0.348191078,966,
0.821475,0.11712,-0.327204,0.018788,0.348041005,967,
0.827193,0.117608,-0.324032,0.021472,0.345383013,968,
0.832902,0.116876,-0.32574,0.017812,0.346531116,969,
0.838559,0.120536,-0.321348,0.018056,0.343685152,970,
0.846411,0.120292,-0.317688,0.012932,0.339945683,971,
0.853207,0.11834,-0.318176,0.015372,0.339818512,972,
0.859332,0.118584,-0.315004,0.015128,0.336925127,973,
0.866032,0.118584,-0.312808,0.016104,0.334918421,974,
0.872417,0.11224,-0.31598,0.015128,0.335663573,975,
0.879209,0.108824,-0.3172,0.016836,0.335770686,976,
0.886499,0.10736,-0.316712,0.015616,0.334778315,977,
0.894792,0.100772,-0.320616,0.015616,0.33644238,978,
0.901693,0.09638,-0.324032,0.014152,0.338357977,979,
0.90878,0.093696,-0.327448,0.018056,0.341067665,980,
0.915685,0.09272,-0.328668,0.019032,0.342026124,981,
0.922988,0.089304,-0.332816,0.02074,0.345212749,982,
0.929706,0.088328,-0.33428,0.02074,0.346374222,983,
0.936018,0.088084,-0.336232,0.016104,0.347951272,984,
0.943595,0.085644,-0.342088,0.022204,0.353344184,985,
0.950556,0.088816,-0.349408,0.02074,0.361115466,986,
0.956846,0.089548,-0.346968,0.017324,0.358755848,987,
0.96394,0.091012,-0.351116,0.019276,0.363231598,988,
0.971677,0.093696,-0.34648,0.0183,0.359391459,989,
0.977974,0.101992,-0.342576,0.016836,0.357832551,990,
0.985063,0.102236,-0.340624,0.016348,0.356011469,991,
0.99216,0.104432,-0.343308,0.012688,0.359064633,992,
0.999756,0.1037,-0.345504,0.009272,0.360849933,993,
0.005988,0.105896,-0.342332,0.011468,0.358520119,994,
0.013028,0.1037,-0.343064,0.009516,0.358520784,995,
0.019331,0.102724,-0.3416,0.009516,0.356837967,996,
0.026924,0.094916,-0.335256,0.0061,0.348486503,997,
0.039243,0.087596,-0.332328,0.008296,0.343778682,998,
0.045949,0.086376,-0.330376,0.00732,0.341559215,999,
0.052323,0.080276,-0.329888,0.014884,0.339840937,1000,
0.062386,0.077836,-0.325496,0.010736,0.334845264,1001,
0.069345,0.077104,-0.315492,0.01098,0.324962751,1002,
0.076269,0.071492,-0.3233,0.017812,0.331588998,1003,
0.08307,0.071736,-0.330376,0.027084,0.33915763,1004,
0.089714,0.069784,-0.343064,0.029036,0.351291623,1005,
0.09655,0.069296,-0.344772,0.025132,0.352563874,1006,
0.105194,0.071492,-0.337696,0.025376,0.346112172,1007,
0.111444,0.069052,-0.334036,0.026108,0.342096267,1008,
0.118432,0.066124,-0.33184,0.026596,0.339407596,1009,
0.126209,0.068076,-0.328424,0.022936,0.336188527,1010,
0.133219,0.070028,-0.308172,0.0122,0.316263723,1011,
0.140211,0.066612,-0.306708,0.024644,0.314824209,1012,
0.146508,0.05978,-0.32818,0.043676,0.336427338,1013,
0.154208,0.066612,-0.330864,0.027328,0.33860739,1014,
0.160802,0.072712,-0.329888,0.02684,0.338870939,1015,
0.167092,0.069296,-0.331352,0.032452,0.340072369,1016,
0.174569,0.065636,-0.340868,0.036112,0.349003087,1017,
0.180887,0.065392,-0.349652,0.033428,0.357281494,1018,
0.188327,0.065148,-0.358924,0.033916,0.366361836,1019,
0.194755,0.065392,-0.35258,0.033184,0.360124906,1020,
0.202612,0.066368,-0.345748,0.03172,0.353486279,1021,
0.208925,0.06954,-0.345504,0.035624,0.354228591,1022,
0.216345,0.073688,-0.33672,0.032208,0.346190172,1023,
0.222729,0.076372,-0.3416,0.03172,0.351467496,1024,
0.230342,0.074908,-0.337696,0.030256,0.347225031,1025,
0.236989,0.083936,-0.32818,0.022692,0.339503006,1026,
0.243349,0.071736,-0.3355,0.025376,0.344020704,1027,
0.25084,0.070272,-0.34404,0.037332,0.353122293,1028,
0.257507,0.066856,-0.349652,0.044164,0.358715353,1029,
0.264316,0.072956,-0.349896,0.042212,0.359905045,1030,
0.270601,0.072956,-0.350872,0.039528,0.360549859,1031,
0.278224,0.070516,-0.344284,0.033916,0.353064122,1032,
0.285283,0.074664,-0.336964,0.031476,0.346569169,1033,
0.291544,0.071004,-0.336232,0.030256,0.34497674,1034,
0.298556,0.071492,-0.33306,0.02806,0.341800283,1035,
0.305606,0.074664,-0.334524,0.02928,0.344003398,1036,
0.312728,0.07564,-0.33428,0.028304,0.343897724,1037,
0.319471,0.073932,-0.331352,0.030012,0.340823721,1038,
0.327128,0.07198,-0.332084,0.03172,0.341272709,1039,
0.334171,0.06954,-0.329888,0.03172,0.33862673,1040,
0.341576,0.069296,-0.331596,0.03172,0.340241093,1041,
0.347868,0.068808,-0.3355,0.030744,0.343860414,1042,
0.358345,0.068808,-0.340624,0.027084,0.348558163,1043,
0.364742,0.07076,-0.339404,0.027328,0.347777044,1044,
0.371418,0.071736,-0.337696,0.028304,0.346389605,1045,
0.377697,0.072712,-0.333304,0.023424,0.341946304,1046,
0.384492,0.072468,-0.332572,0.026596,0.341413376,1047,
0.391441,0.074176,-0.33428,0.023424,0.343211132,1048,
0.398122,0.075152,-0.336232,0.022448,0.345258879,1049,
0.405151,0.07808,-0.336232,0.022204,0.345892269,1050,
0.41205,0.077104,-0.335744,0.016592,0.344883103,1051,
0.418329,0.075884,-0.33794,0.017568,0.346800317,1052,
0.425183,0.075396,-0.33794,0.016348,0.346634184,1053,
0.431447,0.075152,-0.339404,0.016592,0.348020391,1054,
0.438149,0.077836,-0.33794,0.014152,0.347076599,1055,
0.444544,0.080032,-0.336232,0.01464,0.345935555,1056,
0.451228,0.078324,-0.33794,0.011712,0.347095467,1057,
0.457836,0.079544,-0.336476,0.011468,0.345940546,1058,
0.465361,0.079056,-0.335744,0.011468,0.345116502,1059,
0.471619,0.08052,-0.335256,0.00854,0.344895618,1060,
0.478333,0.078324,-0.338916,0.009516,0.347978819,1061,
0.484743,0.078568,-0.337452,0.007076,0.346549928,1062,
0.491926,0.077592,-0.33916,0.006344,0.347980273,1063,
0.499271,0.076616,-0.335988,0.005124,0.344650842,1064,
0.50557,0.075884,-0.33916,0.005368,0.347586971,1065,
0.514379,0.077592,-0.34038,0.003416,0.349128532,1066,
0.520656,0.07686,-0.343552,0.00244,0.352053107,1067,
0.527657,0.074664,-0.342332,0.004392,0.350407193,1068,
0.534602,0.074664,-0.343064,0.005124,0.351132278,1069,
0.542593,0.074664,-0.34648,0.002196,0.354440299,1070,
0.549354,0.072468,-0.339648,0.003172,0.347307409,1071,
0.556662,0.075884,-0.342088,0.005124,0.350440917,1072,
0.563197,0.07564,-0.339892,0.005124,0.348244507,1073,
0.56998,0.074908,-0.341844,0.00488,0.349989062,1074,
0.576289,0.075396,-0.340624,0.004148,0.34889321,1075,
0.583264,0.07564,-0.33916,0.000976,0.347493695,1076,
0.590156,0.077348,-0.34038,0.001952,0.349063129,1077,
0.596438,0.07808,-0.343308,0.00244,0.352083545,1078,
0.603498,0.078568,-0.346968,0.002928,0.355764384,1079,
0.610461,0.07686,-0.349164,0.007564,0.357603373,1080,
0.617149,0.075884,-0.352092,0.010492,0.360329349,1081,
0.623522,0.07442,-0.353556,0.016104,0.361662163,1082,
0.630453,0.080032,-0.355996,0.017812,0.365315672,1083,
0.63689,0.07686,-0.360632,0.009516,0.368854244,1084,
0.644031,0.078812,-0.358436,0.004392,0.367024505,1085,
0.650891,0.0793,-0.360388,0.007564,0.369087001,1086,
0.657175,0.080764,-0.36234,0.013664,0.371483249,1087,
0.663948,0.084668,-0.356728,0.014396,0.366920674,1088,
0.670233,0.088084,-0.357704,0.016348,0.36875222,1089,
0.677,0.090036,-0.35258,0.017324,0.364306545,1090,
0.683347,0.092232,-0.348432,0.016836,0.360825514,1091,
0.690045,0.08906,-0.34038,0.018056,0.352301358,1092,
0.696342,0.088084,-0.33428,0.019764,0.346255,1093,
0.703539,0.086864,-0.325008,0.017568,0.336874144,1094,
0.710715,0.0854,-0.314028,0.006832,0.325504871,1095,
0.717464,0.086376,-0.309148,0.001952,0.32099394,1096,
0.724509,0.085156,-0.301096,0.007808,0.313003691,1097,
0.73152,0.085644,-0.30012,0.005612,0.312151251,1098,
0.738499,0.0915,-0.298412,0.004636,0.312159357,1099,
0.744911,0.091744,-0.300852,0.003172,0.314545623,1100,
0.75316,0.093452,-0.2989,-0.000244,0.313168558,1101,
0.760064,0.09638,-0.301096,-0.002684,0.31615678,1102,
0.769081,0.098576,-0.300852,-0.002928,0.316603422,1103,
0.775725,0.09882,-0.303536,-0.004392,0.319247217,1104,
0.78212,0.100528,-0.301584,-0.003904,0.31792142,1105,
0.789133,0.099796,-0.30256,-0.003416,0.318611777,1106,
0.795808,0.097844,-0.303292,-0.003172,0.318699776,1107,
0.802778,0.098088,-0.30866,0.000488,0.3238711,1108,
0.80968,0.09638,-0.31232,0.000976,0.326854462,1109,
0.817756,0.095892,-0.316468,0.001464,0.330680229,1110,
0.824184,0.099796,-0.318176,0.002196,0.333466687,1111,
0.831495,0.100772,-0.318908,0.00122,0.334452982,1112,
0.837779,0.100772,-0.3172,0.000244,0.332822619,1113,
0.845451,0.102236,-0.31842,0.00122,0.334432332,1114,
0.852323,0.101016,-0.3172,0.001952,0.332902212,1115,
0.859374,0.098576,-0.317688,0.005856,0.332681809,1116,
0.866434,0.100284,-0.31842,0.007564,0.33392423,1117,
0.873392,0.10126,-0.320128,0.009516,0.335895934,1118,
0.881086,0.102724,-0.321104,0.008052,0.337231128,1119,
0.88739,0.100772,-0.319396,0.005124,0.334955305,1120,
0.894181,0.097844,-0.318908,0.002928,0.333593066,1121,
0.901634,0.095648,-0.318908,0.006344,0.333003151,1122,
0.909359,0.093208,-0.318176,0.00732,0.331628227,1123,
0.916191,0.085888,-0.326228,0.012932,0.337592496,1124,
0.923046,0.083448,-0.330864,0.0183,0.341715445,1125,
0.930008,0.079788,-0.33428,0.016348,0.344058862,1126,
0.936303,0.0793,-0.335988,0.018544,0.34571709,1127,
0.943096,0.077592,-0.344772,0.022204,0.354092175,1128,
0.951342,0.076372,-0.3477,0.022936,0.356726832,1129,
0.95821,0.078812,-0.348432,0.02318,0.357985338,1130,
0.964607,0.084912,-0.348188,0.019764,0.358936689,1131,
0.971957,0.090524,-0.345504,0.021472,0.357810921,1132,
0.978521,0.099064,-0.340624,0.024644,0.355592059,1133,
0.984891,0.105652,-0.337208,0.024888,0.354247079,1134,
0.992339,0.112728,-0.327692,0.021472,0.347204112,1135,
0.998628,0.115168,-0.326472,0.019276,0.346726404,1136,
0.005388,0.121756,-0.319884,0.012444,0.342498394,1137,
0.01336,0.126636,-0.304024,0.011224,0.329534895,1138,
0.019649,0.13542,-0.302804,0.005856,0.33175764,1139,
0.026698,0.1525,-0.29158,0.004148,0.329078034,1140,
0.03374,0.168116,-0.289872,0.006832,0.335164798,1141,
0.040826,0.174704,-0.290116,0.006832,0.338726228,1142,
0.048232,0.172752,-0.300364,0.005124,0.346537215,1143,
0.055241,0.164212,-0.31232,0.006588,0.352920338,1144,
0.06194,0.148108,-0.317444,0.01098,0.350467164,1145,
0.0689,0.128344,-0.314028,0.011956,0.339453551,1146,
0.075723,0.115168,-0.314516,0.015616,0.335302612,1147,
0.082024,0.105164,-0.311344,0.014152,0.328929829,1148,
0.088781,0.099064,-0.3721,0.013908,0.385312235,1149,
0.095075,0.09516,-0.313784,0.013664,0.328180635,1150,
0.101706,0.093452,-0.318664,0.013176,0.332345646,1151,
0.10805,0.091256,-0.321348,0.01342,0.334323632,1152,
0.114867,0.089548,-0.325252,0.01464,0.337671493,1153,
0.121083,0.090768,-0.323544,0.012688,0.336274494,1154,
0.127806,0.096624,-0.320128,0.008784,0.334507537,1155,
0.134237,0.099796,-0.319396,0.010248,0.334780627,1156,
0.140877,0.107604,-0.2501,0.00732,0.272364119,1157,
0.147184,0.109556,-0.309636,0.00366,0.328466688,1158,
0.153941,0.11468,-0.310368,0.001464,0.330880554,1159,
0.162116,0.116144,-0.310124,-0.002928,0.331172006,1160,
0.168419,0.118828,-0.311588,-0.0061,0.333533185,1161,
0.175235,0.121756,-0.308416,-0.016104,0.331970317,1162,
0.181492,0.116632,-0.3111,-0.013908,0.33253521,1163,
0.188197,0.11224,-0.313784,-0.01586,0.333631167,1164,
0.194622,0.107604,-0.311588,-0.012688,0.329888902,1165,
0.201335,0.104676,-0.310124,-0.010248,0.327473635,1166,
0.207643,0.101992,-0.315736,-0.01098,0.331982153,1167,
0.214464,0.097844,-0.313784,-0.015372,0.329044291,1168,
0.220712,0.095648,-0.31964,-0.02074,0.334287925,1169,
0.227409,0.094428,-0.319884,-0.0244,0.334421561,1170,
0.233797,0.094916,-0.322324,-0.021716,0.336709656,1171,
0.240866,0.09272,-0.322812,-0.022204,0.336597094,1172,
0.247568,0.091988,-0.323788,-0.017568,0.337059484,1173,
0.25458,0.091744,-0.330132,-0.019032,0.343170972,1174,
0.263828,0.093696,-0.330376,-0.018544,0.343905687,1175,
0.270132,0.0976,-0.330132,-0.020252,0.344852202,1176,
0.277385,0.09882,-0.332572,-0.02196,0.347637411,1177,
0.283775,0.101504,-0.334768,-0.024644,0.350685048,1178,
0.290473,0.106872,-0.337696,-0.025864,0.355146673,1179,
0.296777,0.10858,-0.34038,-0.023424,0.358045869,1180,
0.303557,0.114924,-0.338428,-0.020984,0.358024252,1181,
0.309877,0.115656,-0.339892,-0.02196,0.359701437,1182,
0.316582,0.119804,-0.338428,-0.01952,0.359537953,1183,
0.322949,0.121756,-0.334768,-0.020252,0.356797255,1184,
0.329664,0.121512,-0.330132,-0.02074,0.352395305,1185,
0.335981,0.121268,-0.329644,-0.018788,0.351744344,1186,
0.34276,0.122488,-0.325984,-0.020496,0.348839454,1187,
0.349083,0.119072,-0.3233,-0.017324,0.344965436,1188,
0.355807,0.120048,-0.321104,-0.017324,0.343248339,1189,
0.362195,0.121024,-0.31964,-0.015128,0.342118977,1190,
0.368902,0.119072,-0.319884,-0.013908,0.341609934,1191,
0.37523,0.120048,-0.31964,-0.0122,0.341657858,1192,
0.381928,0.117364,-0.3172,-0.010004,0.338364047,1193,
0.388688,0.11712,-0.312808,-0.00976,0.334157443,1194,
0.395491,0.114436,-0.311344,-0.010736,0.331882428,1195,
0.402407,0.110776,-0.310124,-0.00854,0.329425483,1196,
0.408608,0.107116,-0.307928,-0.005124,0.326067088,1197,
0.415429,0.105896,-0.308416,-0.005124,0.326129801,1198,
0.422241,0.101748,-0.308904,-0.002928,0.325242848,1199,
0.428426,0.10004,-0.307928,-0.00244,0.323780185,1200,
0.434227,0.099064,-0.307196,-0.001952,0.322779908,1201,
0.439956,0.100284,-0.309392,-0.001952,0.325244678,1202,
0.445661,0.102968,-0.311344,-0.001952,0.327934911,1203,
0.451309,0.103944,-0.312076,0.000732,0.328932091,1204,
0.458675,0.111264,-0.315492,0.000488,0.33453717,1205,
0.464398,0.11346,-0.315736,-0.000976,0.335504614,1206,
0.470087,0.121268,-0.314272,-0.001708,0.336861596,1207,
0.475816,0.12078,-0.314028,0.061732,0.342070509,1208,
0.484756,0.12444,-0.315248,-0.002928,0.338932424,1209,
0.491479,0.126148,-0.315492,-0.005124,0.339815796,1210,
0.498173,0.125172,-0.316468,-0.005856,0.340373791,1211,
0.504957,0.125416,-0.321348,-0.008052,0.345048612,1212,
0.51131,0.12078,-0.321836,-0.00976,0.343891664,1213,
0.518015,0.118584,-0.326228,-0.01098,0.347285809,1214,
0.524436,0.11468,-0.328912,-0.0122,0.348544755,1215,
0.535861,0.110288,-0.329888,-0.017324,0.348266646,1216,
0.542292,0.102724,-0.336232,-0.017568,0.352012518,1217,
0.549033,0.097356,-0.33794,-0.01708,0.35209851,1218,
0.555336,0.094916,-0.343796,-0.016104,0.357021114,1219,
0.562052,0.097112,-0.347212,-0.019764,0.361078287,1220,
0.568898,0.096624,-0.346236,-0.0244,0.360292832,1221,
0.575651,0.103212,-0.349164,-0.029524,0.365294241,1222,
0.582442,0.102968,-0.34648,-0.033672,0.363021491,1223,
0.588436,0.104188,-0.345504,-0.04026,0.363110205,1224,
0.594043,0.110288,-0.342576,-0.044896,0.362680865,1225,
0.599545,0.11346,-0.34038,-0.04392,0.361470168,1226,
0.605114,0.118828,-0.339648,-0.045872,0.362746603,1227,
0.610661,0.11956,-0.3355,-0.047336,0.359298679,1228,
0.616147,0.1281,-0.33184,-0.04758,0.358874981,1229,
0.62207,0.126636,-0.327692,-0.045872,0.354292201,1230,
0.629057,0.126636,-0.325984,-0.041236,0.352140103,1231,
0.635784,0.121024,-0.320128,-0.043432,0.344985628,1232,
0.642221,0.110288,-0.317444,-0.042456,0.338727985,1233,
0.64897,0.099796,-0.317688,-0.036844,0.33502595,1234,
0.655278,0.091012,-0.312076,-0.038308,0.327325704,1235,
0.661972,0.087352,-0.2501,-0.040992,0.26806851,1236,
0.668575,0.082228,-0.307684,-0.040504,0.321047445,1237,
0.674992,0.080032,-0.304268,-0.03782,0.316882453,1238,
0.683866,0.077104,-0.309392,-0.032208,0.320477443,1239,
0.692734,0.074664,-0.312808,-0.029768,0.322970109,1240,
0.69906,0.077104,-0.316712,-0.025132,0.326929863,1241,
0.706169,0.081496,-0.316224,-0.019276,0.327125023,1242,
0.712537,0.090768,-0.311832,-0.016592,0.325197356,1243,
0.719244,0.100528,-0.31476,-0.010004,0.330574978,1244,
0.725559,0.106384,-0.31964,-0.00366,0.336898621,1245,
0.732352,0.106872,-0.32086,-0.000732,0.338191218,1246,
0.739548,0.107848,-0.328424,0.060024,0.350850959,1247,
0.746254,0.107848,-0.328912,0.00244,0.346150615,1248,
0.752624,0.111264,-0.328668,0.004636,0.34702136,1249,
0.759331,0.110044,-0.327692,0.004636,0.345706843,1250,
0.765554,0.115656,-0.326472,0.005124,0.346390722,1251,
0.772444,0.11712,-0.327936,0.001952,0.348228265,1252,
0.779364,0.125416,-0.327936,0.00122,0.351102096,1253,
0.7861,0.130784,-0.326472,-0.000244,0.351693732,1254,
0.792498,0.141764,-0.327448,-0.006588,0.356879008,1255,
0.799252,0.151768,-0.325496,-0.013176,0.359381105,1256,
0.805559,0.162016,-0.324032,-0.014884,0.36258441,1257,
0.812361,0.169092,-0.321348,-0.01342,0.363368598,1258,
0.818642,0.172752,-0.317932,-0.011956,0.362031706,1259,
0.825453,0.16958,-0.320128,-0.01098,0.362436026,1260,
0.831696,0.15738,-0.323544,-0.010248,0.359936391,1261,
0.838687,0.146644,-0.32452,-0.007808,0.356200306,1262,
0.845459,0.136152,-0.319884,-0.007808,0.347741435,1263,
0.851677,0.129808,-0.315492,-0.005368,0.341195156,1264,
0.858891,0.126392,-0.313784,-0.006344,0.338342404,1265,
0.865618,0.122488,-0.313296,-0.008296,0.336491482,1266,
0.871918,0.119072,-0.311344,-0.011956,0.333550856,1267,
0.87862,0.11834,-0.308904,-0.011712,0.331003335,1268,
0.885907,0.121024,-0.30744,-0.015372,0.330760428,1269,
0.894968,0.117364,-0.30622,-0.01708,0.328385023,1270,
0.901226,0.118828,-0.301584,-0.016348,0.324561642,1271,
0.907915,0.119804,-0.305244,-0.01586,0.328296265,1272,
0.914933,0.119804,-0.304756,-0.012444,0.327695089,1273,
0.921203,0.122732,-0.305,-0.009516,0.328905303,1274,
0.927968,0.122,-0.307196,-0.006832,0.330605594,1275,
0.934405,0.122,-0.307196,-0.003416,0.330552646,1276,
0.941343,0.124196,-0.311832,-0.00122,0.335656567,1277,
0.948042,0.121268,-0.311588,0.00122,0.334356842,1278,
0.954445,0.12444,-0.311344,0.00122,0.335293734,1279,
0.961106,0.120292,-0.311588,0.002196,0.334009086,1280,
0.967412,0.120048,-0.308904,0.001464,0.331414162,1281,
0.974189,0.121512,-0.309148,0.001708,0.33217551,1282,
0.980476,0.119316,-0.308172,0.001952,0.330469514,1283,
0.987176,0.117608,-0.305976,0.001464,0.327803443,1284,
0.993522,0.11834,-0.306952,0.002196,0.328981319,1285,
0.000224,0.119316,-0.307684,0.003416,0.330026394,1286,
0.006537,0.119316,-0.31232,0.00366,0.334355329,1287,
0.0133,0.122732,-0.311344,0.00488,0.334696944,1288,
0.019612,0.124928,-0.313784,0.008784,0.337852871,1289,
0.026308,0.124928,-0.312076,0.009028,0.336273608,1290,
0.032687,0.128344,-0.314028,0.009028,0.339363039,1291,
0.039379,0.130052,-0.313784,0.008784,0.339780929,1292,
0.045712,0.13176,-0.31476,0.008052,0.34132007,1293,
0.052627,0.1342,-0.317444,0.007564,0.344728222,1294,
0.058944,0.135664,-0.3172,0.008052,0.345087519,1295,
0.065684,0.139324,-0.316224,0.005368,0.345597469,1296,
0.072026,0.137616,-0.316712,0.003904,0.345340261,1297,
0.078811,0.135176,-0.316468,0.000732,0.344129455,1298,
0.08504,0.134444,-0.316468,0.001464,0.343844918,1299,
0.091702,0.130784,-0.31598,0.000976,0.34197773,1300,
0.098046,0.127856,-0.31476,-0.000488,0.339737034,1301,
0.104895,0.124684,-0.31232,-0.000244,0.33628848,1302,
0.111147,0.117852,-0.31354,0,0.334957349,1303,
0.117882,0.115168,-0.312564,-0.000732,0.333107277,1304,
0.124313,0.113704,-0.3111,-0.00366,0.331247951,1305,
0.131036,0.112972,-0.310124,-0.002684,0.330070859,1306,
0.137339,0.112972,-0.30866,-0.005612,0.328732662,1307,
0.144098,0.113948,-0.310124,-0.0061,0.330451588,1308,
0.150415,0.11468,-0.31354,-0.008052,0.333951596,1309,
0.157157,0.117364,-0.315248,-0.007076,0.336460517,1310,
0.163329,0.122488,-0.315736,-0.006588,0.338726931,1311,
0.16907,0.123952,-0.318664,-0.0061,0.341976685,1312,
0.175629,0.12566,-0.321348,-0.005856,0.345093126,1313,
0.1819,0.127612,-0.325008,-0.00732,0.349240039,1314,
0.188636,0.12688,-0.32696,-0.008052,0.35080794,1315,
0.195014,0.127368,-0.330376,-0.006832,0.354143453,1316,
0.201678,0.1281,-0.330132,-0.004392,0.354141267,1317,
0.207984,0.1281,-0.334768,-0.000976,0.358441315,1318,
0.214836,0.130784,-0.339404,0.000732,0.36373076,1319,
0.221074,0.132736,-0.339892,0.001952,0.364896188,1320,
0.227819,0.138592,-0.340136,0.003904,0.367308429,1321,
0.23409,0.1464,-0.337208,0.004148,0.367640315,1322,
0.239865,0.149816,-0.33428,0.005612,0.366359723,1323,
0.24553,0.154208,-0.336476,0.005368,0.370168909,1324,
0.251213,0.158356,-0.336232,0.0061,0.371706592,1325,
0.256937,0.158356,-0.332572,0.006588,0.3684076,1326,
0.26263,0.158844,-0.331108,0.008784,0.367343276,1327,
0.26829,0.160308,-0.32696,0.00854,0.364245011,1328,
0.274349,0.156648,-0.327204,0.010736,0.362927424,1329,
0.281614,0.15372,-0.324276,0.011956,0.359065048,1330,
0.287913,0.151036,-0.32086,0.012932,0.354866524,1331,
0.294744,0.145668,-0.3172,0.012688,0.349279246,1332,
0.300996,0.140544,-0.31232,0.016104,0.342864021,1333,
0.307713,0.133712,-0.3111,0.018544,0.339125329,1334,
0.315154,0.125904,-0.308904,0.020252,0.334191026,1335,
0.321454,0.116876,-0.307684,0.023912,0.330001859,1336,
0.328158,0.115656,-0.306708,0.024888,0.328733205,1337,
0.3364,0.11102,-0.306708,0.027084,0.327305333,1338,
0.34281,0.11102,-0.300852,0.026352,0.321763569,1339,
0.350531,0.111996,-0.298412,0.02806,0.319969044,1340,
0.356826,0.119316,-0.298656,0.027816,0.32280868,1341,
0.363804,0.124928,-0.2928,0.024888,0.319309032,1342,
0.370501,0.129564,-0.29036,0.02318,0.318799423,1343,
0.376796,0.137128,-0.287188,0.020252,0.318890544,1344,
0.383569,0.142496,-0.292556,0.020252,0.326043351,1345,
0.39124,0.14518,-0.286212,0.020252,0.321565988,1346,
0.397552,0.150792,-0.278404,0.02074,0.317296647,1347,
0.40438,0.156892,-0.277428,0.020252,0.319361141,1348,
0.410625,0.159332,-0.269376,0.02318,0.313827067,1349,
0.417352,0.161528,-0.274012,0.0244,0.319012901,1350,
0.423744,0.16226,-0.26962,0.021472,0.315411317,1351,
0.430436,0.158844,-0.265228,0.021472,0.309900557,1352,
0.437342,0.15738,-0.27206,0.02196,0.315067214,1353,
0.443745,0.157136,-0.272792,0.02074,0.315495397,1354,
0.45043,0.154452,-0.271816,0.022936,0.313473154,1355,
0.456721,0.152256,-0.277428,0.01952,0.317063424,1356,
0.463479,0.153476,-0.276696,0.021228,0.317121723,1357,
0.469837,0.152012,-0.275964,0.021472,0.315792375,1358,
0.476538,0.1525,-0.280356,0.025376,0.320155709,1359,
0.482923,0.154696,-0.280112,0.024156,0.320900448,1360,
0.489621,0.157624,-0.281332,0.022204,0.323243,1361,
0.495922,0.1586,-0.284748,0.020252,0.326566267,1362,
0.502755,0.162748,-0.286456,0.01708,0.329902528,1363,
0.50989,0.162992,-0.294508,0.018788,0.337126598,1364,
0.517049,0.161528,-0.294508,0.01952,0.336462906,1365,
0.523404,0.162504,-0.299388,0.018544,0.341151879,1366,
0.530064,0.159332,-0.304756,0.017812,0.34435472,1367,
0.536386,0.155428,-0.304024,0.019276,0.341994181,1368,
0.543183,0.152988,-0.304268,0.014152,0.340858656,1369,
0.549488,0.151524,-0.305488,0.011224,0.34118678,1370,
0.556203,0.14884,-0.306708,0.00488,0.34095008,1371,
0.562537,0.1464,-0.307196,0.000732,0.34029822,1372,
0.569993,0.145668,-0.304512,-0.004636,0.33759179,1373,
0.576325,0.14396,-0.304024,-0.01342,0.336652893,1374,
0.583125,0.144448,-0.301584,-0.016348,0.334791563,1375,
0.589449,0.144448,-0.296216,-0.0183,0.33006671,1376,
0.596164,0.147864,-0.29646,-0.018544,0.331807435,1377,
0.602549,0.149816,-0.297436,-0.01464,0.333357672,1378,
0.610586,0.142252,-0.310368,-0.01586,0.341782777,1379,
0.617316,0.144692,-0.321836,-0.018544,0.353352608,1380,
0.626672,0.14274,-0.341356,-0.021228,0.370606603,1381,
0.635019,0.146888,-0.339404,-0.018788,0.37030278,1382,
0.641336,0.136396,-0.335988,-0.0122,0.362823159,1383,
0.648994,0.126636,-0.344284,-0.009516,0.366958722,1384,
0.655881,0.120292,-0.352336,-0.012932,0.372529272,1385,
0.662797,0.11956,-0.357216,-0.022936,0.377390944,1386,
0.669132,0.119804,-0.351604,-0.020008,0.371992865,1387,
0.676089,0.117608,-0.344528,-0.018056,0.364495821,1388,
0.68316,0.11712,-0.345748,-0.024156,0.36584462,1389,
0.689858,0.121024,-0.33672,-0.0244,0.358639829,1390,
0.697979,0.123464,-0.331108,-0.022692,0.354105625,1391,
0.704379,0.127124,-0.321104,-0.020496,0.345960079,1392,
0.71136,0.130052,-0.316224,-0.019032,0.342451979,1393,
0.718803,0.128588,-0.31232,-0.016348,0.338150726,1394,
0.725576,0.127368,-0.303048,-0.017568,0.329194976,1395,
0.731867,0.128344,-0.301096,-0.012932,0.32756407,1396,
0.739385,0.121512,-0.300852,-0.011956,0.324684521,1397,
0.746174,0.119072,-0.294752,-0.008296,0.318002683,1398,
0.753024,0.111752,-0.284016,-0.002928,0.305224788,1399,
0.759336,0.102724,-0.28182,-0.00122,0.299960366,1400,
0.766042,0.091744,-0.279136,0.004392,0.293859078,1401,
0.773385,0.08052,-0.274744,0.008784,0.2864348,1402,
0.780366,0.069052,-0.274256,0.02074,0.283574822,1403,
0.787352,0.059292,-0.264984,0.019764,0.272254802,1404,
0.794374,0.058072,-0.247904,0.030744,0.256464313,1405,
0.801076,0.059048,-0.245464,0.037088,0.255175942,1406,
0.807303,0.052216,-0.242536,0.044652,0.252079398,1407,
0.814744,0.059536,-0.300608,0.05978,0.312223243,1408,
0.822737,0.057584,-0.244732,0.058804,0.258200657,1409,
0.829806,0.058316,-0.25864,0.06222,0.272335701,1410,
0.836836,0.059048,-0.2745,0.067588,0.288799332,1411,
0.844304,0.061244,-0.29402,0.070272,0.308442445,1412,
0.850595,0.062708,-0.307196,0.073932,0.322129813,1413,
0.858117,0.072468,-0.322568,0.075884,0.339205111,1414,
0.865022,0.073932,-0.345016,0.074176,0.360560758,1415,
0.871325,0.07442,-0.364048,0.075884,0.379246179,1416,
0.878336,0.078568,-0.393084,0.072468,0.407356813,1417,
0.885132,0.079056,-0.400648,0.068564,0.414088992,1418,
0.891395,0.07808,-0.401868,0.067344,0.414885032,1419,
0.899555,0.079056,-0.389912,0.054656,0.401582491,1420,
0.905847,0.098088,-0.363316,0.024156,0.377098507,1421,
0.912604,0.123708,-0.337208,-0.004636,0.359213581,1422,
0.92099,0.225212,-0.270108,-0.066368,0.357887535,1423,
0.927796,0.284504,-0.211304,-0.113704,0.372183431,1424,
0.93422,0.287676,-0.2013,-0.001464,0.351114389,1425,
0.941836,0.209108,-0.309148,0.055388,0.377314818,1426,
0.948139,0.183488,-0.338428,0.056852,0.389144584,1427,
0.955308,0.158844,-0.334524,0.064172,0.375840084,1428,
0.962679,0.132004,-0.311588,0.074176,0.346430681,1429,
0.969364,0.108824,-0.305,0.075152,0.332438695,1430,
0.97567,0.095892,-0.303536,0.070028,0.325934502,1431,
0.982809,0.087108,-0.298656,0.0671,0.318254018,1432,
0.989527,0.078812,-0.2989,0.063928,0.315656982,1433,
0.995832,0.072224,-0.302072,0.056608,0.315702811,1434,
0.002933,0.07076,-0.30012,0.049776,0.312340587,1435,
0.009246,0.063684,-0.296704,0.045384,0.306836476,1436,
0.015954,0.000244,-0.297436,0.0427,0.30048548,1437,
0.022328,0.061976,-0.29036,0.041968,0.299852076,1438,
0.029065,0.124196,-0.282308,0.046116,0.311847942,1439,
0.040327,0.062708,-0.274988,0.048556,0.286196399,1440,
0.04721,0.062708,-0.274256,0.0488,0.285534738,1441,
0.053573,0.06344,-0.269864,0.048312,0.281398759,1442,
0.060326,0.05978,-0.271572,0.048312,0.282239347,1443,
0.067278,0.061244,-0.271328,0.04636,0.281991065,1444,
0.073656,0.05978,-0.2745,0.044408,0.284422167,1445,
0.080353,0.05734,-0.275964,0.047336,0.285805356,1446,
0.086765,0.059048,-0.279624,0.047336,0.289684215,1447,
0.093533,0.056608,-0.282064,0.047824,0.291636247,1448,
0.099882,0.060268,-0.285724,0.049288,0.296141424,1449,
0.106189,0.06344,-0.292312,0.051728,0.30355679,1450,
0.113021,0.064172,-0.301584,0.055876,0.313357754,1451,
0.119341,0.065636,-0.312564,0.05734,0.324487618,1452,
0.126199,0.071004,-0.330376,0.061244,0.343424951,1453,
0.133217,0.073688,-0.361852,0.060756,0.374243347,1454,
0.140599,0.07442,-0.385032,0.064416,0.397413385,1455,
0.146912,0.074664,-0.404064,0.065148,0.416036886,1456,
0.153633,0.075396,-0.416264,0.06344,0.427767353,1457,
0.159937,0.07686,-0.416996,0.063196,0.428703695,1458,
0.166693,0.075396,-0.41602,0.061,0.427174668,1459,
0.173057,0.078812,-0.406016,0.063928,0.41850581,1460,
0.179838,0.077592,-0.39772,0.065392,0.41046051,1461,
0.18615,0.077836,-0.388692,0.064416,0.401608435,1462,
0.193183,0.07686,-0.37454,0.065392,0.387896616,1463,
0.199489,0.07686,-0.366976,0.000244,0.374938533,1464,
0.206218,0.081008,-0.363804,0.05978,0.377477542,1465,
0.212602,0.081008,-0.362828,0.05734,0.37615732,1466,
0.22037,0.081984,-0.364292,0.061,0.378353059,1467,
0.226681,0.08296,-0.379908,0.061488,0.393691788,1468,
0.235655,0.08784,-0.395524,0.064904,0.410326248,1469,
0.242323,0.09028,-0.421144,0.068564,0.436135036,1470,
0.249236,0.0915,-0.445056,0.072956,0.460184388,1471,
0.25553,0.091988,-0.464576,0.076616,0.479752711,1472,
0.263177,0.093696,-0.48556,0.074664,0.500122152,1473,
0.269482,0.093208,-0.498492,0.075396,0.512705142,1474,
0.277022,0.094672,-0.503616,0.071248,0.517366544,1475,
0.283474,0.090524,-0.500444,0.071492,0.513565865,1476,
0.290434,0.091988,-0.49288,0.07076,0.506359027,1477,
0.297456,0.09272,-0.478972,0.070516,0.49293375,1478,
0.304813,0.094916,-0.465552,0.070516,0.480333445,1479,
0.312129,0.094184,-0.452376,0.071736,0.467611725,1480,
0.318423,0.094428,-0.44896,0.072956,0.464547421,1481,
0.325636,0.09638,-0.451156,0.072712,0.467030915,1482,
0.33267,0.093696,-0.460916,0.075152,0.476309062,1483,
0.339615,0.097112,-0.476532,0.07564,0.492173645,1484,
0.346331,0.096136,-0.558516,0.07564,0.571754897,1485,
0.353071,0.09516,-0.514352,0.0732,0.528177665,1486,
0.359386,0.09638,-0.532164,0.077592,0.54635899,1487,
0.366083,0.093452,-0.538508,0.081008,0.552527319,1488,
0.373174,0.091988,-0.53314,0.080764,0.547012683,1489,
0.380053,0.0915,-0.523136,0.077104,0.536645648,1490,
0.386357,0.090524,-0.506788,0.075884,0.520372033,1491,
0.393492,0.08784,-0.488488,0.072712,0.5016208,1492,
0.400215,0.085644,-0.471652,0.069784,0.484417496,1493,
0.408388,0.08662,-0.457744,0.069052,0.470957294,1494,
0.415434,0.085888,-0.447984,0.069052,0.461339996,1495,
0.422479,0.08418,-0.440664,0.067344,0.453658735,1496,
0.429521,0.082228,-0.44042,0.070272,0.453507855,1497,
0.437629,0.078324,-0.4453,0.069296,0.45741521,1498,
0.444637,0.07686,-0.449936,0.069296,0.461683657,1499,
0.45156,0.07686,-0.454084,0.067344,0.465440601,1500,
0.458259,0.076128,-0.453352,0.068076,0.464712653,1501,
0.464662,0.075884,-0.445544,0.070028,0.457352991,1502,
0.471582,0.07442,-0.435784,0.069052,0.447453025,1503,
0.478299,0.075396,-0.42822,0.065148,0.439660309,1504,
0.485002,0.073932,-0.421632,0.066856,0.433254208,1505,
0.492206,0.075396,-0.415776,0.06466,0.427475326,1506,
0.498506,0.074664,-0.413824,0.066856,0.425787201,1507,
0.505313,0.073932,-0.410164,0.066856,0.422102087,1508,
0.512428,0.074664,-0.408456,0.067832,0.420728175,1509,
0.52068,0.072956,-0.411384,0.068808,0.423431121,1510,
0.527907,0.07442,-0.412116,0.069052,0.424436229,1511,
0.534811,0.074908,-0.410164,0.067344,0.422351666,1512,
0.541989,0.0732,-0.407724,0.065636,0.41941052,1513,
0.548288,0.072224,-0.4026,0.065392,0.414221173,1514,
0.556066,0.07198,-0.398208,0.063928,0.409679778,1515,
0.562841,0.072956,-0.392108,0.062464,0.403699161,1516,
0.569684,0.073444,-0.389912,0.061976,0.401579897,1517,
0.575992,0.073688,-0.388448,0.06588,0.400826577,1518,
0.583618,0.0732,-0.379908,0.063928,0.392141706,1519,
0.589908,0.07442,-0.374296,0.064172,0.386980462,1520,
0.597152,0.07442,-0.370636,0.063196,0.383279422,1521,
0.604178,0.07442,-0.372344,0.065148,0.385256606,1522,
0.610855,0.073932,-0.36966,0.062952,0.382200746,1523,
0.617688,0.07442,-0.366732,0.060512,0.379067802,1524,
0.625238,0.0732,-0.36722,0.060024,0.379225064,1525,
0.632951,0.069296,-0.364292,0.057828,0.375306108,1526,
0.639931,0.071736,-0.361364,0.055876,0.372628664,1527,
0.64688,0.07198,-0.359168,0.055632,0.370510043,1528,
0.65324,0.071004,-0.35136,0.055632,0.362753824,1529,
0.66024,0.07076,-0.34526,0.056852,0.35699243,1530,
0.667246,0.07198,-0.33672,0.05612,0.348870941,1531,
0.674173,0.073688,-0.33184,0.057096,0.344684871,1532,
0.680757,0.071492,-0.325496,0.053192,0.337473171,1533,
0.687057,0.071004,-0.321592,0.051484,0.333337044,1534,
0.693801,0.071492,-0.320616,0.051728,0.332537985,1535,
0.700104,0.072468,-0.314516,0.050996,0.326760642,1536,
0.706797,0.069784,-0.315736,0.05002,0.327201817,1537,
0.71317,0.06954,-0.312076,0.050996,0.323771267,1538,
0.719866,0.067588,-0.305732,0.05002,0.317083891,1539,
0.726169,0.0671,-0.301828,0.048312,0.31294824,1540,
0.733156,0.066368,-0.298168,0.04514,0.308782265,1541,
0.739474,0.066612,-0.290604,0.045384,0.301575116,1542,
0.746162,0.065148,-0.285968,0.042944,0.296422243,1543,
0.752519,0.067344,-0.278892,0.0427,0.290067668,1544,
0.759253,0.065148,-0.270596,0.04026,0.281224687,1545,
0.766156,0.066612,-0.254492,0.049776,0.267733051,1546,
0.772951,0.11956,-0.20862,0.08662,0.255577625,1547,
0.779245,0.15372,-0.147864,0.08052,0.227984805,1548,
0.785539,0.138836,-0.178852,0.06344,0.235134231,1549,
0.792376,0.120048,-0.229116,0.0732,0.268819463,1550,
0.798677,0.113704,-0.258152,0.071248,0.290942146,1551,
0.804656,0.113216,-0.281088,0.076128,0.312448074,1552,
0.810341,0.098088,-0.278648,0.068076,0.303150632,1553,
0.820121,0.096624,-0.293288,0.059536,0.314481452,1554,
0.827531,0.092964,-0.30256,0.054168,0.321121521,1555,
0.83457,0.09272,-0.303536,0.032696,0.319061327,1556,
0.841544,0.093696,-0.290604,0.030988,0.3069037,1557,
0.850284,0.078324,-0.2928,0.03416,0.305013761,1558,
0.857581,0.078812,-0.283528,0.033916,0.296225848,1559,
0.863986,0.073444,-0.27938,0.032696,0.290716759,1560,
0.870676,0.07442,-0.274256,0.033428,0.286133048,1561,
0.87698,0.074664,-0.28548,0.033672,0.296997217,1562,
0.884084,0.073932,-0.283528,0.036112,0.295225581,1563,
0.890805,0.073444,-0.286456,0.038308,0.298192159,1564,
0.897145,0.072956,-0.298412,0.040016,0.30979603,1565,
0.903933,0.073932,-0.299144,0.043432,0.311190315,1566,
0.910219,0.073932,-0.304024,0.045384,0.316158569,1567,
0.916917,0.067832,-0.31354,0.044896,0.323919994,1568,
0.923267,0.068808,-0.310124,0.044896,0.320822516,1569,
0.929994,0.068076,-0.311588,0.04514,0.322116506,1570,
0.936277,0.062464,-0.308172,0.042944,0.317357716,1571,
0.943198,0.06222,-0.297436,0.043676,0.306996898,1572,
0.949516,0.05856,-0.287432,0.044164,0.296642693,1573,
0.956221,0.056364,-0.27694,0.043188,0.285898352,1574,
0.962637,0.056608,-0.263764,0.043188,0.273205265,1575,
0.968896,0.055388,-0.255956,0.047092,0.266080741,1576,
0.975376,0.053436,-0.247904,0.048556,0.258204346,1577,
0.981069,0.051972,-0.239364,0.047824,0.24956632,1578,
0.987747,0.051484,-0.24156,0.04636,0.251298797,1579,
0.99379,0.049776,-0.243268,0.048068,0.252917976,1580,
0.999519,0.047092,-0.243024,0.046116,0.251803508,1581,
0.005211,0.046604,-0.250832,0.046116,0.259259157,1582,
0.010982,0.047336,-0.255468,0.049776,0.264541577,1583,
0.018141,0.047336,-0.266204,0.049776,0.274923474,1584,
0.025806,0.04514,-0.273768,0.048312,0.281639107,1585,
0.032172,0.044652,-0.280112,0.049532,0.287940884,1586,
0.038916,0.044896,-0.2867,0.050508,0.294556614,1587,
0.045879,0.046848,-0.2867,0.049776,0.294735942,1588,
0.052651,0.043188,-0.284504,0.048068,0.291750342,1589,
0.05897,0.042456,-0.282796,0.049044,0.290140317,1590,
0.065267,0.043676,-0.2745,0.0488,0.282204328,1591,
0.071528,0.042944,-0.265716,0.047336,0.273294487,1592,
0.07743,0.043432,-0.254736,0.047336,0.262711753,1593,
0.083189,0.043432,-0.240828,0.045384,0.248885861,1594,
0.088928,0.043676,-0.232288,0.042212,0.240098232,1595,
0.094639,0.0427,-0.223016,0.043676,0.231229365,1596,
0.100311,0.04392,-0.217648,0.039772,0.225569125,1597,
0.105946,0.043188,-0.209596,0.041236,0.217935987,1598,
0.11164,0.043432,-0.199836,0.039528,0.208286409,1599,
0.117366,0.048556,-0.201544,0.037332,0.210645074,1600,
0.123183,0.047336,-0.198616,0.038552,0.207786595,1601,
0.128936,0.049288,-0.201544,0.036112,0.210602392,1602,
0.134659,0.052704,-0.203252,0.037332,0.213266888,1603,
0.140388,0.054168,-0.20496,0.038308,0.215430445,1604,
0.146101,0.055876,-0.209108,0.037088,0.219599187,1605,
0.151906,0.060512,-0.219112,0.0366,0.230241896,1606,
0.157607,0.062952,-0.23058,0.035868,0.241695271,1607,
0.16343,0.061732,-0.239608,0.03416,0.249779381,1608,
0.169158,0.06588,-0.253028,0.0366,0.264013074,1609,
0.175165,0.06832,-0.268888,0.034404,0.279556817,1610,
0.180859,0.09394,-0.270108,0.03538,0.288157595,1611,
0.187185,0.093696,-0.288164,0.03172,0.30466964,1612,
0.192913,0.141032,-0.294752,0.025132,0.327719978,1613,
0.199884,0.185196,-0.38552,0.026108,0.428491373,1614,
0.206177,0.212524,-0.33428,0.052704,0.39960891,1615,
0.212146,0.341356,-0.253028,0.037576,0.426566575,1616,
0.217784,0.316956,-0.367708,-0.016104,0.485725867,1617,
0.226115,0.549244,-0.177388,0.005124,0.577201637,1618,
0.234336,0.399428,-0.355996,0.13908,0.552828297,1619,
0.240086,0.356972,-0.264496,0.216184,0.494087709,1620,
0.246919,0.335256,-0.27816,0.265228,0.51001516,1621,
0.253207,0.260592,-0.24522,0.256444,0.440232398,1622,
0.260517,0.245708,-0.175924,0.212036,0.369162485,1623,
0.270416,0.177632,-0.211792,0.127856,0.304558919,1624,
0.2767,0.148352,-0.189344,0.098576,0.259955177,1625,
0.282678,0.122732,-0.271084,0.07808,0.307646169,1626,
0.288383,0.110776,-0.27938,0.069052,0.308371019,1627,
0.294129,0.098332,-0.275476,0.070516,0.300879901,1628,
0.299914,0.086376,-0.256444,0.079788,0.282117818,1629,
0.305632,0.079788,-0.260592,0.085156,0.285527336,1630,
0.311321,0.068076,-0.249124,0.087596,0.272708944,1631,
0.318939,0.061244,-0.24522,0.085644,0.266868077,1632,
0.325784,0.059536,-0.305488,0.085156,0.322674755,1633,
0.333108,0.055632,-0.256444,0.079788,0.274270978,1634,
0.339421,0.051484,-0.271328,0.073444,0.285768275,1635,
0.346186,0.047092,-0.284748,0.073932,0.297934591,1636,
0.352994,0.062464,-0.276208,0.065636,0.290690033,1637,
0.359705,0.053924,-0.310612,0.068808,0.322679645,1638,
0.365993,0.064172,-0.303292,0.072712,0.31841972,1639,
0.372268,0.071248,-0.313296,0.0793,0.330936778,1640,
0.378034,0.070028,-0.33306,0.083936,0.350539779,1641,
0.385178,0.075396,-0.3416,0.097844,0.363247251,1642,
0.390885,0.08662,-0.360144,0.101992,0.384199288,1643,
0.396583,0.101748,-0.359656,0.107116,0.38881735,1644,
0.404902,0.183,-0.3477,0.11834,0.410351856,1645,
0.412632,0.14518,-0.332816,0.125172,0.384072587,1646,
0.420096,0.160064,-0.320372,0.135176,0.382794009,1647,
0.427428,0.161772,-0.30988,0.14396,0.378047981,1648,
0.43425,0.152012,-0.302316,0.1464,0.368694415,1649,
0.440864,0.15738,-0.299388,0.144936,0.367978373,1650,
0.447163,0.146888,-0.299876,0.145424,0.364211257,1651,
0.453508,0.131028,-0.297436,0.14396,0.355472914,1652,
0.461676,0.112728,-0.2989,0.137616,0.347831821,1653,
0.467964,0.105408,-0.296216,0.13298,0.341377277,1654,
0.475511,0.099308,-0.298656,0.132004,0.341295387,1655,
0.48138,0.089304,-0.295972,0.129564,0.335203609,1656,
0.487033,0.089792,-0.298656,0.13054,0.338080909,1657,
0.493951,0.084912,-0.286456,0.129808,0.325756358,1658,
0.500176,0.082472,-0.290604,0.12932,0.328596984,1659,
0.505837,0.083204,-0.290604,0.13298,0.330238203,1660,
0.511519,0.078324,-0.293288,0.133224,0.3315134,1661,
0.517228,0.084668,-0.294996,0.137372,0.336247493,1662,
0.523094,0.083448,-0.293532,0.14274,0.336896588,1663,
0.530213,0.082472,-0.301096,0.142984,0.343372766,1664,
0.541813,0.083448,-0.30012,0.14152,0.342145427,1665,
0.548119,0.093208,-0.304512,0.142252,0.348784921,1666,
0.554913,0.093452,-0.30378,0.14152,0.347913028,1667,
0.561156,0.097112,-0.309636,0.142252,0.354317406,1668,
0.567804,0.10126,-0.3172,0.144692,0.363049862,1669,
0.574247,0.102968,-0.317688,0.150304,0.366223111,1670,
0.581384,0.106628,-0.3233,0.151768,0.372727711,1671,
0.587701,0.104676,-0.323788,0.15616,0.374408439,1672,
0.594504,0.100772,-0.335256,0.153964,0.382434955,1673,
0.600816,0.100284,-0.348188,0.153964,0.393696174,1674,
0.60913,0.094672,-0.370148,0.153964,0.411918976,1675,
0.617232,0.08784,-0.389912,0.152744,0.427876107,1676,
0.62403,0.081984,-0.413824,0.151524,0.448253502,1677,
0.630843,0.071736,-0.427488,0.150304,0.458784629,1678,
0.639176,0.05734,-0.43554,0.144448,0.46243723,1679,
0.645651,0.053924,-0.427976,0.142496,0.454286654,1680,
0.651999,0.044164,-0.408456,0.131272,0.431299317,1681,
0.65955,0.03782,-0.38674,0.1403,0.413137108,1682,
0.665853,0.031964,-0.362584,0.064172,0.369603707,1683,
0.672918,0.033428,-0.34282,0.109312,0.361375285,1684,
0.680292,0.037088,-0.310124,0.091988,0.32559823,1685,
0.686608,0.046848,-0.283528,0.082716,0.299039794,1686,
0.693904,0.045872,-0.257664,0.070272,0.270985482,1687,
0.700908,0.049532,-0.243268,0.073688,0.258964593,1688,
0.70776,0.041724,-0.222772,0.072468,0.237949295,1689,
0.714173,0.04392,-0.210816,0.072224,0.227131368,1690,
0.721121,0.03538,-0.219356,0.078324,0.235591698,1691,
0.727834,0.039528,-0.220332,0.073688,0.235666235,1692,
0.734932,0.044896,-0.231312,0.074664,0.247175252,1693,
0.741202,0.041236,-0.244976,0.080276,0.26107065,1694,
0.748015,0.045628,-0.245952,0.08052,0.262788453,1695,
0.754431,0.037332,-0.248636,0.08052,0.264001911,1696,
0.761137,0.047824,-0.275964,0.071248,0.288997477,1697,
0.767439,0.053192,-0.27816,0.07686,0.293444772,1698,
0.774278,0.042944,-0.2867,0.086864,0.302632503,1699,
0.781174,0.046116,-0.309636,0.087352,0.325010015,1700,
0.787488,0.046116,-0.330864,0.094184,0.347085433,1701,
0.794286,0.034648,-0.337452,0.113948,0.357852599,1702,
0.800571,0.0183,-0.328668,0.127124,0.35287116,1703,
0.807293,0.035868,-0.35868,0.141276,0.387165035,1704,
0.813714,0.01952,-0.342332,0.149084,0.373896065,1705,
0.820931,0.020252,-0.361364,0.1647,0.397643275,1706,
0.82726,0.023912,-0.370636,0.15372,0.401961026,1707,
0.834028,0.031232,-0.347944,0.12688,0.371670552,1708,
0.840326,0.039284,-0.357948,0.116876,0.378589491,1709,
0.847006,0.040016,-0.359168,0.112728,0.378563779,1710,
0.853366,0.036112,-0.359412,0.116632,0.379584096,1711,
0.860066,0.03294,-0.345016,0.115168,0.365218773,1712,
0.866372,0.029036,-0.332084,0.129076,0.357468161,1713,
0.873167,0.027328,-0.339892,0.131272,0.365384358,1714,
0.880436,0.031232,-0.329644,0.134932,0.357557337,1715,
0.887048,0.046116,-0.321836,0.12932,0.349898212,1716,
0.89358,0.04514,-0.33062,0.137128,0.360764871,1717,
0.900334,0.019276,-0.335744,0.1464,0.366781349,1718,
0.906637,0.019032,-0.332328,0.14274,0.362186173,1719,
0.913435,0.017812,-0.301096,0.13176,0.329145509,1720,
0.919804,0.025376,-0.280356,0.147376,0.317746933,1721,
0.926507,0.00976,-0.233752,0.165676,0.286677157,1722,
0.932864,0.00854,-0.211792,0.173484,0.273907797,1723,
0.939602,0.008784,-0.218624,0.187392,0.288078763,1724,
0.946533,0.020008,-0.244732,0.163968,0.295261879,1725,
0.952924,0.012688,-0.27816,0.162504,0.322399629,1726,
0.959646,0.005612,-0.294264,0.158112,0.334099088,1727,
0.965945,0.00244,-0.293044,0.151768,0.330021613,1728,
0.972337,0.001464,-0.278648,0.145424,0.314316705,1729,
0.978551,-0.010004,-0.278892,0.138348,0.311481937,1730,
0.98432,-0.026596,-0.282552,0.12078,0.308432794,1731,
0.990668,-0.012932,-0.265716,0.107116,0.286785751,1732,
0.99634,-0.009028,-0.288652,0.10004,0.305629651,1733,
0.002191,0.004636,-0.28304,0.093696,0.298181278,1734,
0.009667,-0.029524,-0.29036,0.094184,0.306677717,1735,
0.015344,-0.029524,-0.297436,0.092232,0.312804384,1736,
0.02156,-0.028548,-0.301096,0.092476,0.316268241,1737,
0.029128,-0.03416,-0.303536,0.090524,0.318583746,1738,
0.036108,-0.032452,-0.308904,0.096868,0.325358607,1739,
0.043515,-0.030988,-0.315004,0.104432,0.333307394,1740,
0.051499,-0.024156,-0.316956,0.1098,0.336304413,1741,
0.057807,-0.011468,-0.315492,0.11346,0.335469654,1742,
0.064645,0.061488,-0.315248,0.11956,0.34271952,1743,
0.070911,0.004392,-0.320128,0.130784,0.345840542,1744,
0.077952,0.00976,-0.315248,0.134932,0.343049856,1745,
0.084782,0.01708,-0.310856,0.14274,0.342487791,1746,
0.091058,0.018788,-0.31354,0.142008,0.344712333,1747,
0.09778,0.01708,-0.323544,0.142496,0.353945697,1748,
0.106031,0.026352,-0.318176,0.137616,0.347661557,1749,
0.112406,0.0183,-0.321592,0.134688,0.34913774,1750,
0.120973,0.02318,-0.339648,0.132492,0.365311109,1751,
0.127722,0.021228,-0.342576,0.128588,0.366529422,1752,
0.134279,0.023424,-0.35746,0.124928,0.379385478,1753,
0.141575,0.02318,-0.35502,0.119804,0.375405795,1754,
0.147872,0.0244,-0.360876,0.113948,0.3792242,1755,
0.154693,0.020984,-0.369172,0.112728,0.386569393,1756,
0.161045,0.022692,-0.364536,0.113704,0.382531073,1757,
0.167747,0.025376,-0.365756,0.117608,0.385036407,1758,
0.174203,0.033184,-0.375272,0.125416,0.397063502,1759,
0.180864,0.035868,-0.390888,0.13542,0.415233089,1760,
0.187169,0.042456,-0.413824,0.138104,0.438321263,1761,
0.193922,0.057584,-0.431392,0.141276,0.45757391,1762,
0.200918,0.068564,-0.45872,0.140788,0.484712617,1763,
0.209248,0.078568,-0.471164,0.146156,0.499529801,1764,
0.216719,0.087596,-0.493856,0.154208,0.524735091,1765,
0.223091,0.092964,-0.518256,0.159088,0.550036888,1766,
0.229857,0.087352,-0.521672,0.162016,0.553191858,1767,
0.236141,0.0732,-0.50996,0.154452,0.537840926,1768,
0.24292,0.069296,-0.49898,0.137616,0.522227096,1769,
0.250481,0.069052,-0.469456,0.112484,0.487657426,1770,
0.258356,0.07686,-0.437004,0.089304,0.45260928,1771,
0.264759,0.08052,-0.408212,0.077836,0.423295346,1772,
0.27166,0.09028,-0.376004,0.066124,0.392303288,1773,
0.279215,0.0915,-0.377468,0.054656,0.39222649,1774,
0.285527,0.086132,-0.367708,0.050508,0.381023559,1775,
0.293256,0.087596,-0.354044,0.05246,0.368472882,1776,
0.299585,0.088328,-0.32452,0.055632,0.340895857,1777,
0.306279,0.096624,-0.299632,0.056608,0.319874973,1778,
0.312661,0.08784,-0.271816,0.070028,0.294115155,1779,
0.319397,0.09028,-0.232532,0.060756,0.256735079,1780,
0.326021,0.085888,-0.213012,0.054168,0.235976764,1781,
0.332392,0.081252,-0.194712,0.055632,0.218196173,1782,
0.339126,0.077348,-0.172996,0.04392,0.194523252,1783,
0.345408,0.082472,-0.162748,0.03782,0.186330069,1784,
0.35223,0.075884,-0.143716,0.034404,0.166121357,1785,
0.358539,0.071004,-0.133956,0.029524,0.154458553,1786,
0.365343,0.071736,-0.135176,0.026108,0.155242495,1787,
0.371585,0.066612,-0.123708,0.032208,0.144146395,1788,
0.378308,0.06344,-0.117364,0.038064,0.138736478,1789,
0.384714,0.066856,-0.120536,0.040992,0.143801934,1790,
0.391392,0.062952,-0.130052,0.0427,0.150664419,1791,
0.397942,0.060024,-0.148108,0.048068,0.166881374,1792,
0.404345,0.06222,-0.1769,0.05124,0.194397726,1793,
0.410314,0.061488,-0.206668,0.056364,0.222866186,1794,
0.417771,0.06466,-0.251564,0.061,0.266807724,1795,
0.423554,0.068808,-0.304268,0.061488,0.317953347,1796,
0.430015,0.081008,-0.340868,0.061488,0.355716268,1797,
0.435757,0.096624,-0.443592,0.076372,0.460372395,1798,
0.443336,0.105896,-0.543876,0.086376,0.56078149,1799,
0.45071,0.111508,-0.603656,0.083448,0.619514462,1800,
0.458501,0.12566,-0.620248,0.077592,0.637588061,1801,
0.466752,0.135664,-0.588772,0.066124,0.607807183,1802,
0.473128,0.1342,-0.528992,0.05734,0.548753179,1803,
0.48099,0.129808,-0.432612,0.045384,0.45394159,1804,
0.489352,0.127368,-0.360632,0.040016,0.384550812,1805,
0.496841,0.121512,-0.31476,0.034892,0.339199757,1806,
0.503654,0.116876,-0.282796,0.03172,0.307635719,1807,
0.511011,0.120292,-0.23912,0.038552,0.270434459,1808,
0.517311,0.129076,-0.225944,0.039772,0.263235858,1809,
0.524501,0.130052,-0.202276,0.030012,0.242342367,1810,
0.532706,0.12932,-0.195932,0.014396,0.235202585,1811,
0.539032,0.135664,-0.202276,0.0244,0.244776758,1812,
0.545786,0.144204,-0.231312,0.01098,0.272801384,1813,
0.552153,0.14518,-0.236192,0.010736,0.277451176,1814,
0.558919,0.146644,-0.24644,0.01098,0.286980307,1815,
0.565235,0.15494,-0.270596,0.022692,0.31263961,1816,
0.571924,0.15494,-0.279868,0.030988,0.321391906,1817,
0.578776,0.171532,-0.29158,0.03904,0.34053817,1818,
0.586409,0.15982,-0.267912,0.076372,0.32117278,1819,
0.593743,0.142984,-0.252296,0.090524,0.303796462,1820,
0.602009,0.127612,-0.253516,0.095648,0.299505801,1821,
0.608307,0.115656,-0.189832,0.09882,0.243265063,1822,
0.61575,0.105408,-0.256932,0.107116,0.297655399,1823,
0.622109,0.095648,-0.25376,0.1098,0.292572585,1824,
0.629628,0.091988,-0.252784,0.109556,0.290454919,1825,
0.63593,0.084424,-0.26596,0.105408,0.298283388,1826,
0.642684,0.090768,-0.268156,0.108092,0.30303523,1827,
0.64905,0.087352,-0.269132,0.10004,0.300117322,1828,
0.656189,0.088084,-0.265228,0.118584,0.303589934,1829,
0.662587,0.087352,-0.264008,0.112728,0.300063656,1830,
0.669373,0.089548,-0.27206,0.11468,0.308523889,1831,
0.675686,0.080764,-0.277428,0.122732,0.313930347,1832,
0.682463,0.082472,-0.283528,0.120536,0.318933668,1833,
0.688837,0.084424,-0.288408,0.117608,0.322704552,1834,
0.695794,0.086376,-0.299144,0.111752,0.330811813,1835,
0.702174,0.090036,-0.326716,0.111752,0.356844974,1836,
0.708906,0.09638,-0.347456,0.117608,0.379270903,1837,
0.71522,0.099552,-0.338184,0.125904,0.374340535,1838,
0.721897,0.111752,-0.34282,0.137128,0.385769556,1839,
0.728208,0.132248,-0.354044,0.136396,0.40179666,1840,
0.735895,0.136884,-0.394304,0.135176,0.438731609,1841,
0.742267,0.134688,-0.405528,0.134688,0.448034232,1842,
0.748476,0.134932,-0.421632,0.138592,0.463883531,1843,
0.755387,0.132492,-0.43554,0.141032,0.476591278,1844,
0.76112,0.130296,-0.45018,0.147132,0.491209635,1845,
0.766753,0.135908,-0.461648,0.14396,0.50230901,1846,
0.772582,0.1403,-0.476532,0.149328,0.518715422,1847,
0.778323,0.152012,-0.484096,0.155916,0.530816715,1848,
0.784465,0.166164,-0.505324,0.156892,0.554597079,1849,
0.790214,0.240096,-0.50264,0.164456,0.580808776,1850,
0.795843,0.200568,-0.51972,0.17202,0.58303283,1851,
0.80244,0.192028,-0.522648,0.189832,0.588278737,1852,
0.808638,0.16592,-0.51972,0.197884,0.580341625,1853,
0.815956,0.133224,-0.499468,0.183732,0.548611306,1854,
0.82474,0.10248,-0.38064,0.139568,0.418172436,1855,
0.831028,0.08296,-0.397964,0.107848,0.420581619,1856,
0.839959,0.068564,-0.35624,0.065392,0.36862457,1857,
0.84669,0.074664,-0.331352,0.039284,0.341924105,1858,
0.853774,0.066124,-0.315248,0.022204,0.322872579,1859,
0.861056,0.07564,-0.256688,0.01342,0.267936999,1860,
0.869702,0.066856,-0.231556,0.012932,0.241361021,1861,
0.876015,0.067588,-0.199592,0.012444,0.211092296,1862,
0.884378,0.06344,-0.16958,0.011956,0.181452352,1863,
0.89135,0.06344,-0.151524,0.015616,0.165009138,1864,
0.899416,0.060756,-0.122,0.017568,0.137418798,1865,
0.906513,0.06222,-0.1159,0.021716,0.133325628,1866,
0.913519,0.061976,-0.10004,0.0244,0.1201848,1867,
0.920491,0.064904,-0.098576,0.0305,0.121901628,1868,
0.927383,0.05734,-0.101504,0.05246,0.127839701,1869,
0.936171,0.054412,-0.132248,0.079056,0.163401501,1870,
0.942592,0.032452,-0.154452,0.17934,0.238896187,1871,
0.949672,0.022692,-0.229604,0.169336,0.286195046,1872,
0.956703,0.02074,-0.33062,0.23424,0.40571925,1873,
0.963084,-0.005856,-0.436272,0.344528,0.55593803,1874,
0.969851,-0.008052,-0.607316,0.315004,0.684196667,1875,
0.977551,0.06954,-0.626348,0.242292,0.675168899,1876,
0.983973,0.119316,-0.636352,0.173728,0.670344384,1877,
0.990666,0.090036,-0.721508,0.06832,0.730306715,1878,
0.996965,0.076616,-0.649284,0.11102,0.663147921,1879,
0.004331,0.09028,-0.520208,0.083936,0.534613967,1880,
0.010688,0.081252,-0.47214,0.07442,0.484826158,1881,
0.017416,0.093452,-0.35502,0.074908,0.374678109,1882,
0.023811,0.090036,-0.293288,0.063684,0.313336854,1883,
0.030494,0.086132,-0.254736,0.08174,0.281052626,1884,
0.041357,0.077348,-0.20008,0.07442,0.22705298,1885,
0.04809,0.067344,-0.143472,0.071492,0.173869305,1886,
0.054457,0.060512,-0.162504,0.071248,0.18747141,1887,
0.0611,0.063928,-0.124196,0.064172,0.153718838,1888,
0.067396,0.052704,-0.098088,0.082716,0.138711586,1889,
0.074242,0.047092,-0.100772,0.081008,0.137604319,1890,
0.08054,0.028792,-0.142496,0.097356,0.174963653,1891,
0.087253,0.018788,-0.189588,0.107604,0.218804066,1892,
0.093649,0.036112,-0.205692,0.106628,0.234484127,1893,
0.10035,0.055144,-0.210328,0.119072,0.247904961,1894,
0.106682,0.065148,-0.233752,0.118584,0.270085958,1895,
0.113889,0.079544,-0.192028,0.121756,0.240886953,1896,
0.121396,0.09394,-0.264496,0.184952,0.33614,1897,
0.128954,0.110044,-0.261324,0.115656,0.306229041,1898,
0.136562,0.105652,-0.278648,0.127368,0.324082799,1899,
0.143563,0.105164,-0.306708,0.119316,0.34549323,1900,
0.150245,0.0976,-0.309636,0.122488,0.346992107,1901,
0.156531,0.096136,-0.296216,0.116388,0.332463856,1902,
0.163341,0.086864,-0.294508,0.114192,0.327597511,1903,
0.169662,0.080276,-0.283528,0.1098,0.314465265,1904,
0.175955,0.074908,-0.279868,0.105408,0.308298804,1905,
0.181864,0.072468,-0.284016,0.10004,0.30971713,1906,
0.18752,0.069296,-0.286944,0.09394,0.30977979,1907,
0.193398,0.072468,-0.289628,0.093208,0.312767838,1908,
0.200213,0.074176,-0.28548,0.094672,0.309780078,1909,
0.205856,0.080276,-0.295728,0.093696,0.320434434,1910,
0.211552,0.086376,-0.28304,0.101016,0.31269264,1911,
0.217264,0.094916,-0.28548,0.0976,0.316280947,1912,
0.222966,0.103456,-0.285236,0.099064,0.31918082,1913,
0.228589,0.119072,-0.288408,0.10126,0.328041008,1914,
0.235734,0.127856,-0.291336,0.110532,0.33681025,1915,
0.242159,0.138104,-0.28914,0.111752,0.339356986,1916,
0.247914,0.151036,-0.292068,0.066124,0.335392268,1917,
0.253669,0.148596,-0.303536,0.130052,0.362116552,1918,
0.259412,0.151524,-0.306708,0.115412,0.361039125,1919,
0.265129,0.149572,-0.345016,0.118096,0.394150338,1920,
0.271917,0.142008,-0.341356,0.115412,0.3873114,1921,
0.28,0.141276,-0.354532,0.11834,0.399570022,1922,
0.286914,0.183244,-0.360632,0.11346,0.420127331,1923,
0.295444,0.117364,-0.394304,0.107604,0.425239431,1924,
0.302622,0.111752,-0.397476,0.125172,0.43144375,1925,
0.309567,0.11712,-0.443104,0.126392,0.475429476,1926,
0.315866,0.118584,-0.425292,0.13542,0.46181601,1927,
0.322653,0.135176,-0.42212,0.145424,0.466482567,1928,
0.32896,0.15006,-0.438468,0.151524,0.487577392,1929,
0.335661,0.168116,-0.427488,0.159088,0.486125469,1930,
0.341958,0.189588,-0.437492,0.158844,0.502567683,1931,
0.348884,0.21106,-0.443592,0.170068,0.519849315,1932,
0.355167,0.237412,-0.45262,0.172996,0.539589602,1933,
0.361856,0.250588,-0.47336,0.188856,0.567917797,1934,
0.368152,0.27572,-0.485072,0.18056,0.58644546,1935,
0.375006,0.305244,-0.47702,0.201788,0.601199116,1936,
0.382281,0.299144,-0.486292,0.191296,0.602130552,1937,
0.388602,0.295728,-0.450912,0.163724,0.563544346,1938,
0.395357,0.258884,-0.413824,0.142252,0.508435699,1939,
0.404044,0.200568,-0.365024,0.114192,0.431867869,1940,
0.411585,0.139324,-0.345504,0.085888,0.382310004,1941,
0.419259,0.107848,-0.327692,0.061,0.350334466,1942,
0.425651,0.088328,-0.297192,0.043432,0.313067499,1943,
0.432782,0.070272,-0.27694,0.029768,0.287263035,1944,
0.439504,0.06466,-0.2501,0.022448,0.259296815,1945,
0.445778,0.06588,-0.222284,0.019032,0.232621083,1946,
0.452986,0.002928,-0.193736,0.017324,0.194531056,1947,
0.45934,0.061244,-0.170556,0.0183,0.182140239,1948,
0.466053,0.055876,-0.153232,0.019764,0.164294823,1949,
0.472459,0.057096,-0.1342,0.021472,0.147413161,1950,
0.479243,0.050996,-0.122976,0.02684,0.135808962,1951,
0.485535,0.051728,-0.11102,0.027572,0.12554458,1952,
0.492268,0.052704,-0.105408,0.033916,0.122633002,1953,
0.498574,0.049532,-0.104676,0.036356,0.121376451,1954,
0.505339,0.048312,-0.108824,0.043676,0.126823915,1955,
0.511578,0.050752,-0.118584,0.044652,0.136498101,1956,
0.518288,0.05002,-0.137128,0.047824,0.153600859,1957,
0.524697,0.051484,-0.16714,0.051972,0.182448542,1958,
0.532038,0.056364,-0.2013,0.058072,0.216958401,1959,
0.538477,0.063196,-0.256932,0.065148,0.272492292,1960,
0.544861,0.072712,-0.328424,0.071492,0.343890193,1961,
0.550811,0.078812,-0.424316,0.07686,0.438363843,1962,
0.556461,0.084668,-0.53314,0.091744,0.547561769,1963,
0.562892,0.089792,-0.641232,0.106628,0.656209274,1964,
0.568872,0.08906,-0.698816,0.115168,0.713820113,1965,
0.574523,0.089304,-0.744688,0.117608,0.759188424,1966,
0.580216,0.0793,-0.73444,0.111752,0.747113856,1967,
0.588338,0.064904,-0.610488,0.09516,0.62125965,1968,
0.595911,0.061488,-0.490684,0.064904,0.49876256,1969,
0.603286,0.06222,-0.393328,0.050508,0.401409145,1970,
0.609504,0.075152,-0.308172,0.035624,0.319197234,1971,
0.615165,0.074908,-0.245708,0.033184,0.25900735,1972,
0.620945,0.067344,-0.21472,0.042456,0.229003067,1973,
0.626669,0.065148,-0.178364,0.03904,0.193861033,1974,
0.632403,0.061488,-0.163236,0.041236,0.179240547,1975,
0.638045,0.069052,-0.143716,0.039772,0.164329788,1976,
0.644107,0.078568,-0.129564,0.036112,0.155768537,1977,
0.649887,0.092232,-0.06832,0.02196,0.116861481,1978,
0.655585,0.116876,-0.128344,0.010736,0.173917921,1979,
0.662614,0.133224,-0.151768,0,0.201945933,1980,
0.668532,0.152012,-0.162016,0.000732,0.222165182,1981,
0.674272,0.158112,-0.183244,-0.007564,0.242146613,1982,
0.679962,0.189344,-0.193004,-0.01708,0.270912201,1983,
0.686701,0.208376,-0.229604,-0.007808,0.310160473,1984,
0.692424,0.238144,-0.239608,-0.013176,0.338080117,1985,
0.698077,0.251076,-0.272548,-0.006588,0.370627808,1986,
0.703973,0.264252,-0.320372,0.011224,0.415443517,1987,
0.710854,0.30378,-0.330864,0.012444,0.449341883,1988,
0.716511,0.280844,-0.365756,0.12078,0.476695513,1989,
0.725502,0.258152,-0.301584,0.141276,0.421371893,1990,
0.732316,0.226432,-0.267912,0.152012,0.382303464,1991,
0.739355,0.214964,-0.227652,0.152256,0.348162094,1992,
0.745649,0.18056,-0.304756,0.14396,0.382364505,1993,
0.751949,0.153232,-0.260836,0.13786,0.332446754,1994,
0.757887,0.139568,-0.269864,0.120292,0.326765926,1995,
0.765953,0.104188,-0.275964,0.14884,0.330400687,1996,
0.773719,0.082716,-0.267424,0.15616,0.320536235,1997,
0.780031,0.087596,-0.27084,0.136884,0.315855338,1998,
0.786349,0.080764,-0.314272,0.133712,0.350953861,1999,
0.792364,0.070272,-0.302072,0.125416,0.334536725,2000,
0.798091,0.072712,-0.3111,0.11956,0.341122908,2001,
0.803846,0.077104,-0.313296,0.108092,0.340269439,2002,
0.809485,0.068564,-0.318664,0.117852,0.346607647,2003,
0.815744,0.071736,-0.299876,0.129564,0.334452536,2004,
0.823722,0.068808,-0.264008,0.196176,0.336035397,2005,
0.832848,0.064172,-0.256688,0.289384,0.392109518,2006,
0.839842,0.08174,-0.344772,0.183976,0.399244697,2007,
0.847024,0.082228,-0.339648,0.186904,0.396302048,2008,
0.853773,0.086132,-0.30866,0.152256,0.354783887,2009,
0.860071,0.078324,-0.353556,0.152256,0.392833786,2010,
0.866758,0.072712,-0.377468,0.148596,0.412128496,2011,
0.873128,0.073932,-0.401624,0.141764,0.432278625,2012,
0.880221,0.07808,-0.414556,0.136396,0.44334753,2013,
0.886402,0.0793,-0.441396,0.136152,0.468675032,2014,
0.892202,0.082472,-0.458232,0.131272,0.483746354,2015,
0.897878,0.094184,-0.45872,0.129564,0.485882182,2016,
0.903777,0.10248,-0.463356,0.131272,0.492375133,2017,
0.909481,0.116632,-0.473116,0.136396,0.506009527,2018,
0.915988,0.133468,-0.489708,0.153232,0.530195887,2019,
0.921657,0.155428,-0.506056,0.161528,0.553481556,2020,
0.927289,0.16592,-0.51972,0.17202,0.572039514,2021,
0.933137,0.174216,-0.52338,0.1891,0.583126615,2022,
0.93948,0.176656,-0.530944,0.203008,0.59524879,2023,
0.945141,0.166652,-0.5307,0.200568,0.591306098,2024,
0.951846,0.12566,-0.492148,0.1769,0.537860297,2025,
0.958351,0.100284,-0.455792,0.148352,0.489705569,2026,
0.96432,0.005612,-0.423584,0.123708,0.441314592,2027,
0.970065,0.052216,-0.394792,0.091256,0.408552189,2028,
0.976869,0.06344,-0.356728,0.060024,0.367263366,2029,
0.983499,0.066368,-0.319396,0.033916,0.327976846,2030,
0.989248,0.072956,-0.30378,0.024156,0.313350249,2031,
0.994891,0.069052,-0.263764,0.017812,0.273234137,2032,
0.000577,0.074908,-0.30866,0.0183,0.318146341,2033,
0.006281,0.072468,-0.232532,0.012932,0.243905676,2034,
0.012808,0.071492,-0.209352,0.012444,0.221572153,2035,
0.019549,0.071248,-0.182024,0.012688,0.195882616,2036,
0.025828,0.069296,-0.168604,0.012932,0.182747041,2037,
0.03263,0.066124,-0.154452,0.014396,0.168626951,2038,
0.038939,0.124196,-0.133956,0.0305,0.185200179,2039,
0.045635,0.041968,-0.135176,0.118096,0.184338084,2040,
0.051927,0.048312,-0.138836,0.080764,0.167726885,2041,
0.058646,0.018788,-0.149572,0.120048,0.192707795,2042,
0.065004,0.01464,-0.189588,0.150792,0.242685324,2043,
0.071673,0.012932,-0.152988,0.134932,0.204399632,2044,
0.077941,0.012688,-0.185196,0.162504,0.246710547,2045,
0.0848,-0.018544,-0.315736,0.194712,0.371410641,2046,
0.091847,-0.033916,-0.3416,0.266448,0.434551944,2047,
0.098545,-0.050752,-0.442128,0.315492,0.545516394,2048,
0.106052,-0.01708,-0.505568,0.2928,0.584484875,2049,
0.113522,0.046604,-0.451644,0.172996,0.485882549,2050,
0.119872,0.071736,-0.48556,0.083204,0.497832776,2051,
0.130188,0.080032,-0.483608,0.046848,0.492419083,2052,
0.138316,0.082716,-0.438956,0.037332,0.448238759,2053,
0.14472,0.063684,-0.402844,0.042212,0.410025357,2054,
0.152451,0.073932,-0.354776,0.04636,0.365350791,2055,
0.159488,0.066124,-0.276452,0.051728,0.288918462,2056,
0.167105,0.071492,-0.267668,0.072712,0.286433761,2057,
0.173471,0.050264,-0.258396,0.062952,0.270661997,2058,
0.18053,0.057584,-0.241316,0.0488,0.252845346,2059,
0.187848,0.059048,-0.144204,0.061732,0.167607577,2060,
0.195927,0.068808,-0.172752,0.060512,0.195549218,2061,
0.203636,0.056852,-0.191052,0.061244,0.208527802,2062,
0.209917,0.060024,-0.246196,0.066856,0.262078377,2063,
0.217452,0.05246,-0.20252,0.08784,0.226897042,2064,
0.224419,0.052216,-0.216184,0.128588,0.25689863,2065,
0.230695,0.060024,-0.230824,0.150548,0.282041309,2066,
0.238135,0.078812,-0.232776,0.16714,0.297206624,2067,
0.244546,0.102968,-0.234728,0.160064,0.302192202,2068,
0.251213,0.132004,-0.23668,0.1464,0.308018568,2069,
0.258863,0.148108,-0.249368,0.14152,0.322720141,2070,
0.266004,0.153964,-0.257176,0.139568,0.330641248,2071,
0.272403,0.140544,-0.268888,0.139812,0.334067011,2072,
0.279578,0.126636,-0.276208,0.131516,0.331095143,2073,
0.285924,0.111996,-0.279136,0.123708,0.325213284,2074,
0.292696,0.099552,-0.272792,0.115412,0.312483609,2075,
0.301439,0.083204,-0.278648,0.097844,0.306824155,2076,
0.308391,0.074908,-0.282796,0.087596,0.305381475,2077,
0.31478,0.068564,-0.288164,0.082472,0.307475436,2078,
0.321462,0.067832,-0.28914,0.077592,0.306958692,2079,
0.328314,0.069784,-0.291824,0.077104,0.309800065,2080,
0.334716,0.076128,-0.287188,0.079544,0.30757059,2081,
0.343312,0.09272,-0.28548,0.095892,0.31510491,2082,
0.349617,0.113216,-0.284016,0.105164,0.323330199,2083,
0.356595,0.132248,-0.280112,0.11102,0.32905578,2084,
0.363737,0.151036,-0.281332,0.118584,0.34061963,2085,
0.370833,0.167872,-0.289384,0.128344,0.358324281,2086,
0.377526,0.177388,-0.288652,0.140056,0.366609005,2087,
0.383918,0.182756,-0.291336,0.143472,0.372640088,2088,
0.390629,0.184952,-0.295484,0.145424,0.377711764,2089,
0.396919,0.177632,-0.295728,0.14762,0.37523305,2090,
0.40367,0.172264,-0.302072,0.142496,0.37580246,2091,
0.409957,0.158844,-0.306708,0.138104,0.371986463,2092,
0.416672,0.148596,-0.312564,0.137372,0.372354793,2093,
0.423036,0.133468,-0.325496,0.135664,0.377049166,2094,
0.429953,0.122976,-0.334768,0.130784,0.379864667,2095,
0.436692,0.105164,-0.36478,0.12444,0.399511238,2096,
0.443065,0.09028,-0.369172,0.122732,0.399376499,2097,
0.449831,0.079788,-0.382104,0.122,0.408966492,2098,
0.456121,0.071248,-0.386252,0.128344,0.413205841,2099,
0.462872,0.070516,-0.391376,0.142252,0.422354485,2100,
0.469107,0.088572,-0.384788,0.154696,0.424072702,2101,
0.475799,0.107116,-0.390888,0.170312,0.439628756,2102,
0.482181,0.133468,-0.389668,0.183488,0.450913188,2103,
0.488921,0.17446,-0.388448,0.202032,0.471322681,2104,
0.495207,0.199348,-0.41236,0.182512,0.49304262,2105,
0.501914,0.215208,-0.421388,0.195688,0.512031369,2106,
0.508195,0.229848,-0.493368,0.194712,0.578061285,2107,
0.515046,0.25254,-0.496052,0.20862,0.594446249,2108,
0.52136,0.269132,-0.491904,0.192516,0.592843984,2109,
0.530804,0.28426,-0.428708,0.16592,0.54048473,2110,
0.543321,0.275476,-0.405284,0.14396,0.510751044,2111,
0.550559,0.193248,-0.387472,0.10492,0.445519412,2112,
0.556855,0.144692,-0.367708,0.097112,0.406909927,2113,
0.563652,0.122244,-0.348676,0.0793,0.377898185,2114,
0.571476,0.098332,-0.332816,0.054656,0.351316026,2115,
0.579788,0.080764,-0.308904,0.034404,0.321135704,2116,
0.587262,0.072712,-0.283284,0.024888,0.293523887,2117,
0.593631,0.06954,-0.252052,0.015616,0.261934881,2118,
0.600791,0.066124,-0.220332,0.021228,0.231017752,2119,
0.608397,0.062708,-0.194468,0.027084,0.206115597,2120,
0.615484,0.061488,-0.160552,0.028548,0.174277673,2121,
0.62226,0.058072,-0.147132,0.032696,0.16152155,2122,
0.629225,0.057584,-0.126636,0.0366,0.143847675,2123,
0.636155,0.055632,-0.114924,0.03782,0.133164551,2124,
0.642519,0.052948,-0.109312,0.041968,0.128506486,2125,
0.650043,0.047824,-0.107848,0.04758,0.127209208,2126,
0.656953,0.048068,-0.113948,0.05368,0.134819219,2127,
0.663339,0.047092,-0.137128,0.0549,0.155034689,2128,
0.670221,0.04514,-0.162748,0.055632,0.177818589,2129,
0.677469,0.049044,-0.199104,0.000488,0.20505598,2130,
0.683809,0.055144,-0.2501,0.063928,0.263965263,2131,
0.691502,0.065636,-0.3233,0.07076,0.337398803,2132,
0.697799,0.077104,-0.478484,0.079788,0.491180303,2133,
0.705505,0.084424,-0.563396,0.09272,0.577182348,2134,
0.712255,0.092232,-0.664656,0.105652,0.679291311,2135,
0.718599,0.099308,-0.75396,0.1159,0.769253255,2136,
0.725711,0.103456,-0.742736,0.095892,0.756012689,2137,
0.733167,0.089548,-0.575352,0.07686,0.587329744,2138,
0.739885,0.08052,-0.530456,0.055388,0.539383786,2139,
0.746852,0.085156,-0.413336,0.046848,0.424609148,2140,
0.753532,0.080032,-0.332816,0.038064,0.344413239,2141,
0.760165,0.0854,-0.269864,0.040016,0.285868884,2142,
0.767068,0.090036,-0.219112,0.037088,0.23977504,2143,
0.773849,0.103456,-0.182512,0.035868,0.212838642,2144,
0.780705,0.106872,-0.163724,0.040748,0.199718732,2145,
0.787631,0.10492,-0.156892,0.030256,0.19115107,2146,
0.794669,0.1159,-0.16226,0.021472,0.200554642,2147,
0.800927,0.11956,-0.18178,0.019764,0.218470084,2148,
0.808333,0.122,-0.204228,0.025864,0.239294844,2149,
0.81538,0.119804,-0.22692,0.014884,0.257035442,2150,
0.821635,0.131272,-0.24156,0.027572,0.276303794,2151,
0.829098,0.171532,-0.264984,0.023668,0.316543712,2152,
0.836019,0.201788,-0.27206,0.022204,0.339452586,2153,
0.843039,0.210328,-0.338916,0.064416,0.40404374,2154,
0.849661,0.205448,-0.299876,0.121756,0.383352344,2155,
0.856288,0.229848,-0.294264,0.13298,0.396364839,2156,
0.863198,0.188856,-0.284748,0.159576,0.377110742,2157,
0.869971,0.176412,-0.306464,0.17202,0.393233083,2158,
0.876276,0.152988,-0.24278,0.166896,0.331966461,2159,
0.883658,0.130052,-0.247416,0.149328,0.316902274,2160,
0.889959,0.118828,-0.244488,0.12078,0.297459718,2161,
0.897253,0.067832,-0.285968,0.106628,0.312647417,2162,
0.903621,0.104432,-0.259372,0.1098,0.300392938,2163,
0.910948,0.086132,-0.282552,0.117364,0.317850063,2164,
0.917821,0.083448,-0.271572,0.108336,0.304058561,2165,
0.924231,0.095404,-0.274744,0.096624,0.306467594,2166,
0.931328,0.0915,-0.268644,0.082716,0.295607485,2167,
0.938564,0.104188,-0.277916,0.075396,0.306230304,2168,
0.945547,0.090768,-0.281332,0.071492,0.30413423,2169,
0.951846,0.091744,-0.274988,0.07442,0.299288653,2170,
0.958945,0.088572,-0.288652,0.090036,0.315073734,2171,
0.965247,0.093452,-0.299876,0.100528,0.329795043,2172,
0.972965,0.104676,-0.315248,0.110776,0.350156663,2173,
0.980332,0.112972,-0.322812,0.11834,0.361904153,2174,
0.986631,0.184708,-0.335744,0.125416,0.403200015,2175,
0.994291,0.131028,-0.350628,0.133468,0.397394059,2176,
0.000604,0.13664,-0.358924,0.136396,0.407554654,2177,
0.007607,0.13908,-0.36234,0.137128,0.411628,2178,
0.01546,0.146644,-0.36234,0.14152,0.415719435,2179,
0.022326,0.14884,-0.361608,0.143228,0.416446817,2180,
0.028634,0.152012,-0.358192,0.146156,0.41565699,2181,
0.035424,0.156648,-0.357216,0.141276,0.414850304,2182,
0.041668,0.1647,-0.348676,0.141764,0.410850429,2183,
0.048395,0.166652,-0.339404,0.150548,0.406979931,2184,
0.054816,0.16714,-0.331108,0.154452,0.401775693,2185,
0.06166,0.17446,-0.339404,0.15494,0.41187106,2186,
0.067929,0.166652,-0.364536,0.149816,0.427906787,2187,
0.074785,0.163968,-0.318908,0.147864,0.387880884,2188,
0.081711,0.17324,-0.381372,0.14274,0.442528426,2189,
0.088425,0.166408,-0.393816,0.141032,0.450191836,2190,
0.095553,0.155184,-0.413824,0.143228,0.46459298,2191,
0.102664,0.143716,-0.4392,0.144936,0.484311235,2192,
0.109373,0.135664,-0.466528,0.145668,0.507220132,2193,
0.115689,0.124928,-0.486048,0.145912,0.522627951,2194,
0.122811,0.108824,-0.501176,0.147864,0.533745078,2195,
0.129874,0.088816,-0.49288,0.14152,0.520429521,2196,
0.13673,0.072224,-0.453352,0.127856,0.476541183,2197,
0.143823,0.052216,-0.407968,0.109556,0.425637072,2198,
0.150509,0.06466,-0.369416,0.051972,0.378616145,2199,
0.156807,0.070516,-0.331596,0.041724,0.341568889,2200,
0.163583,0.073932,-0.30988,0.01952,0.319174851,2201,
0.169877,0.077592,-0.289628,0.017324,0.300341502,2202,
0.176129,0.071736,-0.259128,0.016592,0.269385724,2203,
0.18295,0.073444,-0.23668,0.017324,0.248418124,2204,
0.189854,0.07076,-0.215452,0.021228,0.227765603,2205,
0.197241,0.070516,-0.197884,0.023912,0.211429344,2206,
0.204609,0.069784,-0.18544,0.025376,0.199754203,2207,
0.211316,0.06588,-0.181536,0.025376,0.194780479,2208,
0.219495,0.06588,-0.188856,0.027328,0.201875166,2209,
0.228881,0.065392,-0.208864,0.029036,0.220779015,2210,
0.235189,0.06954,-0.228872,0.032452,0.241394566,2211,
0.243182,0.072956,-0.269132,0.038552,0.281497545,2212,
0.25202,0.076616,-0.33184,0.0488,0.344048306,2213,
0.258327,0.078568,-0.385276,0.060268,0.397797384,2214,
0.266052,0.087352,-0.449692,0.070272,0.463455953,2215,
0.272658,0.087596,-0.512644,0.073688,0.525268361,2216,
0.279014,0.082228,-0.561688,0.076616,0.572821844,2217,
0.285727,0.0793,-0.58804,0.075396,0.598133838,2218,
0.292017,0.070028,-0.5734,0.072224,0.582157871,2219,
0.298785,0.065636,-0.509228,0.060756,0.517022758,2220,
0.305093,0.061488,-0.44896,0.05734,0.456764416,2221,
0.311797,0.059048,-0.382348,0.052704,0.390454058,2222,
0.318102,0.056364,-0.324032,0.053192,0.333171167,2223,
0.325669,0.054168,-0.271084,0.057828,0.282426601,2224,
0.332784,0.049044,-0.218136,0.061244,0.231817721,2225,
0.339491,0.045872,-0.189588,0.057828,0.203450062,2226,
0.345774,0.042212,-0.176656,0.056852,0.190319062,2227,
0.352545,0.04026,-0.171044,0.052216,0.183312379,2228,
0.358891,0.038796,-0.17568,0.052704,0.187473474,2229,
0.365603,0.037576,-0.18056,0.046116,0.190106693,2230,
0.371878,0.040748,-0.1952,0.04758,0.2050056,2231,
0.378615,0.045628,-0.210572,0.046604,0.220441408,2232,
0.384986,0.050508,-0.2318,0.051972,0.242864956,2233,
